File: 数据/xrd/望军4个xrd10分钟-03.22/cnt-s_Theta_2-Theta.asc
*TYPE		=  Raw
*CLASS		=  ASCII CLASS
*SAMPLE		=
*COMMENT	=
*FNAME		=  cnt-s_Theta_2-Theta.asc
*DATE		=  24-Mar-23 00:28

*GROUP_COUNT	=  1
*GONIO		=  MiniFlex 300/600, 150
*ATTACHMENT	=  Air-sensitive Sample Holder
*ASC		=  0, 0, 0.000000, 0.000000
*FILTER		=  K-beta(x1.5)
*C_MONOCHRO	=  None, 0.000000
*SLIT_NAME	=  0, IHS
*SLIT_NAME	=  1, DS
*SLIT_NAME	=  2, SS
*SLIT_NAME	=  3, RS
*COUNTER	=  D/teX Ultra2, 0
*POS_FORMAT	=  0
*SCAN_AXIS	=  2theta/theta
*MEAS_MODE	=  Continuous Scanning
*TARGET		=  29
*XRAY_CHAR	=  K-ALPHA
*WAVE_LENGTH1	=  1.54059
*WAVE_LENGTH2	=  1.54441
*THICKNESS	=  0, 0.000000
*MU		=  0, 0.000000
*SCAN_MODE	=  2theta/theta
*SPEED_DIM	=  sec./step
*XUNIT		=  deg.
*YUNIT		=  cps
*SCALE_MODE	=  1
*REP_COUNT	=  0
*SE_COUNT	=  0
*STD_MATERIAL	=  Unknown, Unknown, 0.000000, 0.000000, 0.000000, 0.000000, 0.000000, 0.000000
*LATT_CONS	=  0, Unknown, Unknown, 0.000000, 0.000000, 0.000000, 0.000000, 0.000000, 0.000000
*SEC_COUNT	=  1
*TSPEC_SIZE	=  0
*EXTRA_SIZE	=  0
*MEMO		=

*BEGIN
*GROUP		=  0
*START		=  10
*STOP		=  90
*STEP		=  0.02
*OFFSET		=  0.000000
*SPEED		=  0.0133333
*SLIT_SPEC	=  0, 10.0mm, 10, 0.000000
*SLIT_SPEC	=  1, 1.250deg, 1.25, 0.000000
*SLIT_SPEC	=  2, 8.0mm, 8, 0.000000
*SLIT_SPEC	=  3, 0.3mm, 0.3, 0.000000
*KV		=  40
*MA		=  15
*LOW		=  0.000000
*HIGH		=  0.000000
*CTEMPER	=  0, 0.000000
*CTEMPER	=  1, 0.000000
*CTEMPER	=  2, 0.000000
*PAREX		=  0, 0.000000
*PAREX		=  1, 0.000000
*PAREX		=  2, 0.000000
*PAREX		=  3, 0.000000
*PAREX		=  4, 0.000000
*PAREX		=  5, 0.000000
*PAREX		=  6, 0.000000
*PAREX		=  7, 0.000000
*PAREX		=  8, 0.000000
*PAREX		=  9, 0.000000
*PAREX		=  10, 0.000000
*PAREX		=  11, 0.000000
*PAREX		=  12, 0.000000
*PAREX		=  13, 0.000000
*PAREX		=  14, 0.000000
*PAREX		=  15, 0.000000
*FULL_SCALE	=  5940
*INDEX		=  0, 0, 0
*COUNT		=  4001
5, 6, 9, 6
7, 4, 7, 3
4, 10, 6, 7
5, 13, 10, 5
6, 8, 8, 5
5, 6, 6, 8
2, 3, 4, 10
6, 7, 8, 5
5, 7, 8, 10
7, 5, 7, 9
7, 8, 4, 9
11, 6, 9, 4
7, 7, 7, 4
4, 7, 6, 6
10, 10, 5, 14
6, 4, 4, 7
7, 3, 5, 7
9, 11, 7, 9
7, 9, 7, 6
10, 9, 3, 8
6, 6, 7, 8
4, 4, 2, 9
11, 11, 11, 6
7, 5, 5, 7
6, 5, 9, 4
4, 2, 10, 10
5, 4, 7, 11
7, 6, 7, 7
5, 7, 9, 6
8, 5, 7, 7
4, 7, 5, 1
6, 6, 12, 13
4, 1, 2, 5
7, 6, 7, 6
6, 4, 8, 8
12, 10, 11, 9
6, 8, 8, 8
8, 9, 11, 5
4, 10, 8, 5
7, 6, 5, 6
7, 9, 10, 8
13, 12, 11, 5
9, 7, 6, 10
10, 9, 10, 8
5, 5, 8, 7
10, 6, 8, 9
10, 6, 13, 6
9, 11, 5, 10
4, 2, 5, 5
10, 9, 9, 3
5, 8, 10, 4
5, 3, 4, 5
4, 5, 6, 7
5, 10, 12, 10
9, 9, 8, 7
17, 9, 6, 6
7, 8, 16, 7
9, 10, 6, 3
12, 12, 10, 8
10, 14, 13, 8
11, 5, 12, 11
8, 9, 13, 9
11, 4, 6, 11
10, 13, 10, 11
8, 8, 8, 8
11, 7, 11, 10
15, 11, 12, 18
18, 8, 10, 11
8, 8, 15, 14
12, 9, 6, 8
4, 10, 9, 5
4, 8, 9, 10
6, 11, 17, 13
12, 11, 7, 9
8, 9, 9, 5
2, 7, 12, 8
6, 10, 10, 9
12, 10, 15, 16
10, 22, 11, 9
7, 4, 13, 8
4, 4, 7, 6
8, 9, 10, 10
5, 14, 9, 9
6, 6, 5, 12
12, 15, 10, 6
10, 8, 7, 12
10, 8, 10, 5
8, 6, 13, 7
9, 10, 10, 13
12, 11, 10, 11
12, 11, 11, 9
13, 10, 10, 4
9, 11, 10, 11
10, 11, 10, 8
18, 7, 10, 15
12, 13, 8, 20
10, 12, 15, 10
9, 10, 7, 13
13, 13, 6, 11
12, 6, 9, 9
13, 11, 11, 10
9, 14, 17, 16
13, 11, 10, 10
8, 12, 12, 6
6, 11, 9, 10
8, 13, 14, 12
21, 17, 10, 14
8, 11, 21, 14
15, 10, 9, 9
8, 20, 15, 14
9, 9, 12, 15
15, 18, 8, 12
6, 9, 14, 19
12, 12, 11, 15
13, 15, 10, 13
10, 7, 10, 14
13, 15, 18, 13
20, 14, 15, 12
17, 17, 13, 12
11, 14, 17, 11
21, 19, 17, 13
17, 15, 20, 21
12, 13, 13, 22
13, 23, 23, 15
11, 16, 12, 18
17, 17, 21, 25
28, 16, 18, 14
23, 21, 21, 21
19, 22, 20, 20
20, 16, 16, 19
22, 20, 13, 26
24, 19, 13, 17
19, 9, 19, 14
20, 10, 7, 15
19, 13, 18, 16
11, 13, 16, 11
14, 19, 14, 9
13, 19, 14, 14
16, 13, 15, 15
18, 20, 18, 19
22, 19, 16, 17
19, 19, 19, 17
17, 14, 19, 14
23, 16, 15, 17
20, 23, 27, 13
14, 17, 19, 21
22, 16, 14, 11
13, 19, 23, 15
18, 21, 25, 20
17, 17, 18, 14
9, 16, 16, 16
15, 22, 14, 11
14, 10, 16, 17
17, 15, 17, 19
24, 21, 18, 19
17, 17, 20, 17
13, 18, 18, 15
25, 27, 23, 21
18, 17, 29, 27
21, 24, 20, 22
25, 26, 29, 28
30, 34, 39, 35
41, 45, 48, 66
54, 40, 46, 48
39, 31, 37, 28
23, 30, 25, 26
23, 19, 24, 20
15, 13, 23, 19
21, 22, 7, 17
17, 16, 18, 20
24, 16, 19, 18
33, 11, 21, 27
27, 24, 27, 28
21, 21, 20, 20
21, 18, 20, 25
18, 21, 20, 23
27, 20, 25, 17
19, 23, 26, 26
20, 28, 25, 25
28, 31, 26, 21
20, 27, 28, 14
17, 20, 21, 19
17, 23, 13, 22
17, 12, 15, 25
15, 22, 13, 16
21, 13, 12, 12
23, 25, 17, 18
21, 18, 27, 24
15, 10, 15, 11
10, 12, 19, 18
10, 22, 17, 11
16, 20, 16, 15
23, 23, 11, 18
23, 24, 12, 19
27, 27, 21, 17
20, 11, 20, 28
29, 24, 29, 29
32, 29, 26, 32
37, 24, 22, 30
19, 26, 31, 12
12, 18, 13, 15
15, 12, 17, 14
19, 16, 15, 14
17, 9, 12, 8
10, 18, 12, 20
20, 17, 16, 11
13, 16, 18, 24
19, 19, 11, 19
16, 21, 19, 15
18, 11, 14, 17
13, 11, 14, 13
11, 12, 18, 5
9, 17, 9, 9
14, 12, 10, 14
13, 13, 12, 14
18, 11, 7, 8
15, 20, 12, 13
11, 17, 16, 9
12, 16, 14, 14
19, 32, 29, 26
28, 26, 25, 32
27, 30, 29, 23
20, 20, 27, 18
12, 13, 13, 15
13, 13, 12, 9
15, 6, 11, 10
17, 19, 11, 10
11, 10, 13, 8
9, 11, 11, 6
9, 13, 13, 11
6, 14, 13, 7
9, 19, 15, 10
11, 9, 14, 20
14, 13, 11, 16
18, 17, 11, 17
22, 16, 19, 15
18, 18, 21, 17
12, 11, 13, 16
16, 15, 10, 14
11, 10, 18, 9
17, 11, 17, 9
16, 16, 10, 15
13, 8, 10, 4
7, 11, 6, 20
14, 15, 8, 9
12, 7, 7, 4
12, 8, 8, 13
6, 6, 7, 11
8, 8, 9, 11
13, 15, 6, 15
6, 10, 8, 9
8, 6, 8, 6
5, 7, 13, 4
7, 7, 6, 10
10, 11, 5, 12
9, 7, 8, 8
8, 9, 9, 8
6, 3, 5, 8
5, 5, 13, 12
10, 8, 7, 9
4, 12, 8, 11
12, 14, 8, 8
13, 11, 7, 8
4, 7, 7, 7
12, 9, 13, 6
8, 12, 17, 19
11, 14, 11, 15
9, 15, 21, 12
19, 9, 12, 14
11, 8, 5, 9
5, 7, 9, 5
7, 11, 10, 11
8, 4, 11, 10
5, 6, 11, 7
8, 7, 6, 2
7, 9, 8, 6
5, 12, 9, 5
7, 8, 3, 7
7, 10, 9, 3
6, 4, 6, 4
8, 6, 7, 8
3, 5, 6, 5
7, 2, 3, 4
7, 5, 5, 4
5, 4, 6, 6
8, 6, 7, 9
5, 6, 4, 9
6, 5, 8, 3
8, 3, 6, 4
3, 3, 5, 6
11, 9, 9, 6
10, 9, 9, 10
12, 12, 10, 12
6, 5, 8, 8
5, 5, 6, 4
8, 4, 5, 7
7, 10, 3, 10
4, 8, 7, 8
7, 8, 6, 7
6, 9, 12, 8
8, 11, 10, 12
14, 8, 4, 6
5, 9, 9, 12
12, 9, 11, 4
6, 9, 7, 6
3, 4, 14, 9
7, 7, 9, 5
3, 7, 6, 4
7, 6, 3, 11
8, 7, 11, 14
10, 9, 7, 8
4, 8, 10, 7
11, 12, 6, 7
8, 4, 5, 4
4, 8, 12, 16
11, 7, 8, 7
9, 8, 5, 6
5, 6, 9, 8
6, 8, 11, 5
7, 9, 5, 8
4, 8, 7, 7
8, 4, 7, 4
6, 9, 10, 7
14, 6, 7, 11
6, 8, 9, 7
7, 9, 17, 10
10, 6, 11, 10
6, 9, 7, 8
3, 9, 4, 4
7, 5, 11, 6
6, 5, 3, 6
8, 6, 6, 6
5, 7, 8, 5
7, 8, 5, 8
4, 7, 4, 8
10, 10, 6, 6
13, 16, 17, 9
5, 12, 14, 6
7, 8, 7, 11
10, 4, 6, 8
3, 5, 10, 5
4, 7, 8, 3
8, 6, 9, 5
3, 7, 9, 9
7, 4, 4, 6
7, 8, 6, 6
6, 3, 7, 7
12, 5, 6, 8
6, 7, 10, 10
8, 5, 9, 8
8, 4, 10, 9
7, 3, 3, 4
7, 7, 4, 4
6, 4, 4, 6
8, 7, 7, 7
7, 7, 7, 7
7, 4, 1, 0.000000
2, 1, 2, 6
1, 1, 4, 3
3, 4, 5, 6
4, 5, 6, 3
6, 7, 8, 5
1, 2, 5, 5
8, 6, 11, 2
3, 5, 4, 8
6, 7, 5, 5
3, 6, 6, 2
10, 7, 5, 10
4, 2, 3, 9
7, 5, 6, 7
6, 4, 3, 5
3, 6, 1, 3
5, 6, 6, 9
8, 10, 6, 8
5, 6, 5, 3
4, 6, 4, 3
4, 4, 6, 5
5, 4, 6, 6
8, 2, 3, 2
4, 5, 6, 6
4, 5, 4, 6
4, 2, 6, 11
2, 9, 6, 5
6, 3, 5, 9
8, 5, 5, 2
8, 5, 4, 7
4, 3, 6, 2
5, 3, 6, 4
7, 4, 6, 7
5, 3, 1, 2
4, 5, 5, 5
2, 5, 4, 6
5, 5, 6, 4
2, 5, 9, 2
1, 13, 10, 11
3, 2, 4, 3
3, 7, 6, 5
3, 4, 3, 6
6, 8, 4, 6
2, 3, 7, 2
1, 4, 7, 7
6, 7, 3, 5
6, 7, 9, 9
6, 6, 5, 6
4, 4, 12, 7
0.000000, 6, 5, 5
3, 6, 5, 9
7, 8, 9, 9
6, 11, 9, 10
8, 17, 7, 4
7, 9, 6, 7
7, 6, 7, 6
8, 6, 10, 7
10, 8, 2, 5
5, 4, 2, 5
4, 3, 2, 8
4, 4, 2, 5
3, 5, 12, 6
6, 3, 4, 3
3, 4, 1, 3
4, 4, 6, 4
6, 4, 5, 4
4, 3, 7, 3
8, 7, 9, 6
4, 3, 4, 6
7, 8, 7, 9
4, 4, 6, 5
7, 7, 2, 6
6, 3, 3, 4
6, 7, 4, 4
4, 4, 5, 3
9, 6, 4, 6
6, 4, 4, 1
2, 3, 2, 1
8, 8, 7, 4
7, 4, 4, 4
6, 6, 7, 8
4, 4, 5, 1
7, 2, 7, 12
6, 11, 7, 6
5, 3, 9, 6
7, 8, 4, 6
4, 7, 8, 9
3, 3, 7, 3
7, 6, 11, 8
8, 7, 8, 8
7, 5, 4, 3
8, 5, 4, 6
1, 4, 4, 5
5, 8, 5, 8
3, 7, 7, 9
3, 12, 5, 9
5, 4, 9, 7
7, 5, 4, 2
5, 4, 1, 5
3, 6, 5, 4
5, 8, 3, 3
2, 1, 6, 7
7, 8, 6, 9
1, 1, 1, 4
9, 11, 6, 1
2, 3, 5, 7
6, 5, 9, 5
5, 1, 1, 1
4, 4, 5, 6
6, 4, 5, 7
10, 5, 5, 6
6, 3, 6, 5
3, 9, 6, 5
6, 9, 4, 5
10, 7, 5, 7
6, 7, 7, 8
12, 13, 6, 4
4, 3, 5, 5
6, 3, 7, 8
8, 4, 5, 8
6, 8, 3, 8
5, 2, 5, 1
2, 5, 3, 2
3, 4, 7, 7
6, 9, 7, 4
2, 3, 4, 7
6, 4, 4, 3
4, 5, 8, 4
5, 4, 8, 2
4, 5, 3, 9
3, 2, 4, 3
2, 6, 4, 5
3, 7, 4, 5
5, 3, 8, 7
3, 5, 7, 9
7, 9, 4, 10
4, 6, 5, 9
6, 3, 7, 11
5, 6, 8, 9
9, 3, 6, 5
2, 6, 3, 5
8, 7, 9, 6
6, 4, 7, 10
5, 7, 6, 7
7, 3, 7, 6
4, 2, 6, 10
11, 8, 7, 5
5, 0.000000, 5, 6
4, 3, 6, 5
9, 10, 7, 7
6, 11, 9, 7
6, 5, 10, 3
4, 1, 2, 4
3, 2, 6, 6
4, 2, 6, 8
4, 8, 7, 3
3, 5, 5, 3
3, 5, 3, 7
11, 13, 6, 10
13, 9, 7, 8
7, 8, 11, 7
5, 9, 11, 4
1, 4, 3, 4
6, 2, 6, 3
6, 7, 15, 8
4, 8, 4, 7
3, 2, 7, 6
2, 4, 4, 5
7, 3, 6, 4
7, 6, 13, 9
4, 5, 8, 5
5, 9, 9, 6
5, 4, 6, 9
8, 10, 9, 4
1, 4, 6, 8
5, 4, 5, 4
3, 4, 5, 6
4, 4, 4, 1
3, 7, 5, 10
11, 8, 4, 8
6, 6, 8, 13
7, 8, 3, 7
7, 11, 5, 4
6, 6, 0.000000, 10
8, 6, 2, 6
7, 2, 5, 4
6, 1, 4, 6
6, 7, 5, 8
5, 5, 4, 7
11, 8, 10, 8
5, 6, 7, 5
13, 10, 9, 10
7, 10, 8, 8
8, 6, 8, 8
7, 2, 1, 4
5, 7, 4, 4
4, 3, 0.000000, 3
7, 6, 1, 6
7, 6, 4, 6
2, 2, 5, 5
5, 4, 6, 7
9, 7, 5, 5
3, 7, 8, 6
2, 5, 4, 5
6, 4, 3, 3
5, 9, 8, 9
5, 4, 6, 4
5, 5, 3, 4
6, 2, 5, 2
5, 5, 6, 8
4, 5, 4, 3
6, 4, 6, 4
5, 4, 4, 5
3, 3, 8, 6
5, 3, 3, 5
6, 5, 6, 6
6, 7, 3, 6
4, 2, 5, 5
9, 9, 2, 1
7, 11, 11, 5
5, 7, 7, 6
5, 6, 8, 7
4, 4, 4, 7
5, 4, 11, 6
2, 4, 3, 5
4, 3, 6, 7
3, 10, 6, 8
11, 5, 10, 8
4, 3, 5, 3
3, 9, 7, 2
2, 5, 3, 4
4, 5, 6, 3
4, 5, 7, 6
8, 7, 6, 8
11, 5, 8, 6
4, 3, 4, 3
8, 7, 6, 4
10, 7, 7, 4
6, 11, 5, 5
7, 7, 12, 5
3, 11, 6, 3
3, 6, 6, 6
6, 3, 7, 7
6, 2, 3, 8
11, 5, 5, 6
4, 5, 6, 3
6, 1, 3, 4
8, 3, 2, 4
3, 4, 3, 10
7, 0.000000, 4, 6
3, 4, 4, 4
6, 6, 2, 2
5, 5, 5, 4
4, 4, 3, 3
4, 2, 6, 8
5, 4, 3, 3
9, 6, 4, 4
6, 5, 2, 4
4, 5, 4, 6
4, 3, 2, 5
4, 2, 3, 5
0.000000, 2, 1, 5
4, 4, 3, 9
3, 7, 2, 1
1, 4, 3, 8
5, 3, 3, 4
4, 9, 11, 8
4, 6, 8, 6
2, 4, 3, 5
4, 2, 6, 3
2, 6, 3, 7
5, 4, 1, 5
5, 7, 5, 5
8, 2, 2, 2
4, 7, 2, 3
4, 4, 3, 2
2, 2, 6, 4
7, 1, 3, 4
2, 6, 5, 7
6, 5, 5, 2
3, 4, 6, 2
4, 6, 5, 7
4, 5, 4, 6
3, 9, 3, 4
2, 2, 3, 4
2, 5, 2, 2
4, 6, 6, 5
3, 5, 6, 3
5, 2, 5, 8
5, 6, 2, 8
5, 5, 2, 2
5, 4, 6, 6
7, 9, 3, 6
0.000000, 3, 4, 1
7, 4, 6, 4
2, 6, 7, 8
5, 1, 1, 4
4, 7, 5, 2
2, 5, 2, 2
3, 4, 4, 2
4, 3, 6, 2
7, 1, 3, 5
4, 3, 6, 4
6, 4, 3, 3
3, 4, 5, 3
6, 9, 6, 3
2, 6, 5, 8
7, 5, 3, 6
5, 5, 5, 5
5, 5, 4, 6
7, 5, 4, 2
3, 2, 5, 3
4, 1, 6, 5
7, 5, 2, 2
3, 2, 5, 7
7, 2, 3, 4
4, 3, 12, 8
6, 4, 8, 2
2, 7, 6, 2
5, 6, 6, 4
5, 7, 4, 4
8, 5, 3, 5
7, 1, 4, 3
3, 3, 4, 4
4, 2, 6, 3
6, 5, 9, 6
6, 6, 5, 5
7, 5, 10, 11
8, 7, 4, 3
4, 5, 6, 6
4, 6, 6, 6
1, 1, 3, 6
6, 2, 4, 8
6, 4, 1, 1
3, 6, 4, 9
7, 9, 6, 5
4, 3, 8, 2
5, 7, 6, 4
7, 4, 5, 2
1, 8, 6, 6
5, 4, 7, 7
2, 2, 3, 4
5, 4, 5, 7
3, 6, 3, 5
5, 3, 5, 6
3, 5, 6, 5
2, 1, 6, 3
2, 2, 3, 6
5, 7, 7, 4
3, 3, 5, 4
6, 5, 3, 9
11, 6, 3, 2
6, 6, 3, 2
5, 6, 6, 6
0.000000, 5, 2, 6
4, 6, 3, 6
4, 6, 4, 2
8, 3, 6, 6
9, 9, 5, 4
5, 3, 4, 0.000000
1, 9, 4, 5
4, 6, 3, 4
3, 5, 4, 5
4, 5, 2, 2
1, 2, 2, 1
5, 4, 6, 6
1, 5, 4, 3
4, 4, 7, 4
0.000000, 2, 3, 7
6, 7, 3, 7
3, 2, 6, 9
5, 4, 4, 4
3, 2, 1, 4
2, 7, 7, 2
6, 6, 5, 4
4, 2, 1, 1
4, 4, 3, 3
3, 5, 3, 4
5, 4, 5, 5
7, 6, 5, 2
3, 6, 4, 7
6, 4, 4, 3
1, 5, 2, 7
4, 6, 5, 4
1, 2, 2, 2
4, 4, 6, 4
5, 6, 4, 5
6, 5, 2, 1
2, 1, 1, 3
3, 0.000000, 2, 2
8, 6, 6, 6
4, 2, 2, 3
1, 7, 1, 1
3, 8, 5, 4
4, 6, 10, 5
2, 3, 5, 4
3, 7, 5, 4
3, 5, 10, 8
8, 4, 6, 5
2, 3, 3, 4
4, 3, 6, 2
2, 6, 2, 1
2, 8, 5, 6
8, 5, 3, 5
3, 2, 3, 3
8, 4, 4, 4
5, 4, 5, 5
5, 2, 5, 3
6, 4, 4, 6
8, 3, 4, 5
5, 7, 6, 7
5, 2, 4, 2
2, 1, 2, 3
2, 2, 2, 3
4, 4, 4, 6
8, 4, 7, 3
7, 2, 3, 3
6, 3, 7, 3
5, 4, 3, 4
4, 4, 6, 5
6, 2, 3, 6
5, 6, 5, 5
1, 4, 5, 7
3, 1, 3, 8
10, 8, 3, 7
7, 6, 3, 5
4, 6, 4, 5
2, 3, 4, 8
6, 3, 4, 4
4, 7, 7, 2
2, 4, 3, 1
4, 4, 5, 3
2, 3, 0.000000, 2
1, 6, 4, 4
4, 6, 1, 1
3, 5, 8, 4
6, 2, 7, 5
3, 4, 0.000000, 5
4, 2, 3, 7
4, 0.000000, 4, 4
4, 2, 5, 3
4, 3, 0.000000, 3
4, 2, 2, 4
3, 2, 2, 6
2, 7, 3, 3
2, 3, 2, 4
5, 5, 3, 2
4, 7, 4, 3
2, 1, 0.000000, 2
2, 1, 2, 2
3, 3, 2, 2
2, 3, 5, 3
0.000000, 5, 5, 4
4, 5, 3, 4
2, 4, 4, 3
2, 5, 2, 3
2, 4, 1, 0.000000
2, 3, 4, 2
4, 4, 1, 3
1, 2, 2, 2
3, 2, 5, 4
3, 4, 5, 1
3, 2, 3, 2
0.000000, 4, 3, 2
4, 3, 1, 2
2, 3, 3, 6
6, 7, 1, 4
5, 3, 4, 4
4, 3, 6, 7
6, 8, 4, 6
1, 6, 6, 3
2, 3, 6, 5
4, 2, 5, 6
4, 3, 1, 7
2, 2, 4, 6
5, 1, 3, 3
3, 1, 2, 5
4, 3, 5, 4
5, 7, 10, 7
6, 6, 4, 2
1, 3, 3, 1
4, 3, 1, 4
3, 1, 2, 1
4, 2, 6, 7
4, 8, 6, 8
6, 3, 7, 7
2, 4, 3, 4
2, 1, 3, 5
4, 6, 4, 5
6, 3, 5, 4
3, 3, 5, 2
5, 5, 4, 6
7, 3, 3, 4
4, 2, 4, 3
2, 5, 4, 3
3, 0.000000, 2, 3
3, 5, 6, 5
4, 2, 5, 4
6, 3, 3, 3
2, 3, 4, 2
7, 0.000000, 1, 4
2, 3, 3, 3
6, 2, 6, 10
7, 2, 2, 3
4, 5, 3, 3
3, 6, 5, 6
3, 5, 6, 5
4, 1, 1, 4
3, 4, 2, 1
2, 5, 4, 4
1, 5, 3, 3
1, 6, 5, 2
3, 4, 2, 5
4, 3, 5, 1
3, 5, 4, 2
3, 2, 2, 0.000000
3, 3, 3, 2
1, 3, 4, 2
2, 4, 5, 4
7, 6, 3, 6
3, 3, 3, 5
1, 2, 3, 2
2, 3, 3, 3
5, 1, 7, 8
2, 1, 4, 5
5, 2, 5, 1
3, 1, 4, 0.000000
2, 2, 6, 1
0.000000, 4, 3, 3
3, 4, 2, 2
4, 3, 5, 4
3, 2, 3, 4
2, 2, 1, 3
5, 2, 1, 1
1, 0.000000, 0.000000, 2
2, 0.000000, 1, 3
1, 2, 3, 7
1, 3, 4, 4
5, 5, 2, 2
0.000000, 3, 3, 4
4, 2, 5, 5
2, 3, 5, 6
10, 7, 4, 6
3, 5, 3, 7
4, 7, 5, 4
5, 6, 4, 5
2, 4, 4, 3
3, 2, 5, 7
1, 1, 4, 1
0.000000, 3, 1, 2
1, 3, 2, 3
5, 3, 2, 4
5, 6, 4, 4
4, 3, 0.000000, 1
3, 5, 2, 2
1, 2, 0.000000, 4
3, 2, 3, 3
2, 0.000000, 1, 2
1, 1, 0.000000, 0.000000
4, 1, 3, 2
2, 3, 4, 2
3, 1, 2, 0.000000
5, 0.000000, 3, 8
7, 5, 1, 1
2, 4, 2, 4
1, 5, 1, 2
1, 3, 2, 1
1, 0.000000, 6, 3
2, 3, 2, 4
1, 4, 4, 2
1, 2, 6, 1
1, 2, 8, 3
3, 0.000000, 6, 2
0.000000, 0.000000, 3, 2
1, 2, 4, 2
1, 1, 3, 3
6, 3, 1, 3
3, 7, 5, 4
5, 2, 8, 4
0.000000, 4, 2, 1
3, 4, 2, 2
5, 4, 2, 4
6, 3, 2, 7
4, 1, 4, 3
4, 1, 2, 3
5, 4, 3, 4
1, 3, 3, 4
0.000000, 1, 5, 3
3, 3, 3, 2
7, 4, 1, 2
2, 2, 1, 2
4, 4, 3, 1
4, 6, 2, 1
0.000000, 2, 4, 3
1, 3, 2, 3
4, 2, 2, 4
3, 4, 0.000000, 4
6, 2, 4, 4
3, 5, 2, 1
1, 2, 3, 2
2, 3, 4, 6
0.000000, 0.000000, 0.000000, 2
2, 3, 2, 5
1, 3, 3, 2
4, 2, 3, 0.000000
0.000000, 1, 3, 0.000000
0.000000, 3, 3, 2
2, 1, 2, 3
2, 5, 4, 3
2, 4, 2, 4
1, 2, 4, 1
3, 3, 2, 4
1, 6, 2, 2
3, 4, 2, 4
2, 6, 1, 2
0.000000, 2, 3, 3
1, 3, 2, 3
3, 1, 3, 4
3, 0.000000, 2, 6
3, 2, 3, 4
2, 2, 2, 1
1, 2, 5, 2
1, 2, 5, 3
0.000000, 1, 1, 3
2, 7, 2, 3
2, 2, 3, 2
1, 0.000000, 1, 3
1, 0.000000, 1, 4
2, 2, 0.000000, 0.000000
2, 6, 3, 3
3, 3, 3, 2
2, 0.000000, 1, 2
4, 4, 3, 3
3, 4, 3, 2
0.000000, 1, 5, 2
3, 6, 0.000000, 2
5, 4, 2, 3
6, 0.000000, 1, 2
5, 1, 3, 5
4, 3, 4, 2
1, 1, 8, 4
4, 4, 5, 4
3, 3, 9, 1
1, 5, 2, 4
4
*END

*EOF