File: 数据/xrd/望军4个xrd10分钟-03.22/cnt-fe3o4_Theta_2-Theta.asc
*TYPE		=  Raw
*CLASS		=  ASCII CLASS
*SAMPLE		=
*COMMENT	=
*FNAME		=  cnt-fe3o4_Theta_2-Theta.asc
*DATE		=  24-Mar-23 00:30

*GROUP_COUNT	=  1
*GONIO		=  MiniFlex 300/600, 150
*ATTACHMENT	=  Air-sensitive Sample Holder
*ASC		=  0, 0, 0.000000, 0.000000
*FILTER		=  K-beta(x1.5)
*C_MONOCHRO	=  None, 0.000000
*SLIT_NAME	=  0, IHS
*SLIT_NAME	=  1, DS
*SLIT_NAME	=  2, SS
*SLIT_NAME	=  3, RS
*COUNTER	=  D/teX Ultra2, 0
*POS_FORMAT	=  0
*SCAN_AXIS	=  2theta/theta
*MEAS_MODE	=  Continuous Scanning
*TARGET		=  29
*XRAY_CHAR	=  K-ALPHA
*WAVE_LENGTH1	=  1.54059
*WAVE_LENGTH2	=  1.54441
*THICKNESS	=  0, 0.000000
*MU		=  0, 0.000000
*SCAN_MODE	=  2theta/theta
*SPEED_DIM	=  sec./step
*XUNIT		=  deg.
*YUNIT		=  cps
*SCALE_MODE	=  1
*REP_COUNT	=  0
*SE_COUNT	=  0
*STD_MATERIAL	=  Unknown, Unknown, 0.000000, 0.000000, 0.000000, 0.000000, 0.000000, 0.000000
*LATT_CONS	=  0, Unknown, Unknown, 0.000000, 0.000000, 0.000000, 0.000000, 0.000000, 0.000000
*SEC_COUNT	=  1
*TSPEC_SIZE	=  0
*EXTRA_SIZE	=  0
*MEMO		=

*BEGIN
*GROUP		=  0
*START		=  10
*STOP		=  90
*STEP		=  0.02
*OFFSET		=  0.000000
*SPEED		=  0.0133333
*SLIT_SPEC	=  0, 10.0mm, 10, 0.000000
*SLIT_SPEC	=  1, 1.250deg, 1.25, 0.000000
*SLIT_SPEC	=  2, 8.0mm, 8, 0.000000
*SLIT_SPEC	=  3, 0.3mm, 0.3, 0.000000
*KV		=  40
*MA		=  15
*LOW		=  0.000000
*HIGH		=  0.000000
*CTEMPER	=  0, 0.000000
*CTEMPER	=  1, 0.000000
*CTEMPER	=  2, 0.000000
*PAREX		=  0, 0.000000
*PAREX		=  1, 0.000000
*PAREX		=  2, 0.000000
*PAREX		=  3, 0.000000
*PAREX		=  4, 0.000000
*PAREX		=  5, 0.000000
*PAREX		=  6, 0.000000
*PAREX		=  7, 0.000000
*PAREX		=  8, 0.000000
*PAREX		=  9, 0.000000
*PAREX		=  10, 0.000000
*PAREX		=  11, 0.000000
*PAREX		=  12, 0.000000
*PAREX		=  13, 0.000000
*PAREX		=  14, 0.000000
*PAREX		=  15, 0.000000
*FULL_SCALE	=  4500
*INDEX		=  0, 0, 0
*COUNT		=  4001
8, 8, 6, 7
9, 3, 7, 7
4, 6, 2, 4
6, 4, 8, 9
8, 10, 7, 4
3, 5, 8, 2
3, 8, 13, 9
8, 3, 3, 3
4, 10, 1, 4
4, 7, 5, 7
6, 5, 3, 3
3, 2, 4, 5
8, 7, 13, 7
4, 6, 6, 5
2, 10, 6, 8
4, 7, 3, 4
5, 6, 7, 7
5, 3, 5, 6
9, 9, 6, 8
10, 6, 6, 6
8, 9, 7, 7
5, 10, 6, 9
5, 4, 3, 6
7, 8, 6, 5
4, 8, 2, 7
10, 4, 7, 8
6, 4, 4, 6
7, 5, 5, 7
4, 4, 8, 11
7, 6, 9, 5
7, 3, 4, 7
8, 4, 5, 2
11, 9, 5, 3
3, 5, 7, 3
6, 9, 4, 3
3, 7, 9, 9
9, 7, 4, 2
6, 7, 5, 12
9, 9, 6, 8
8, 7, 4, 4
5, 10, 10, 6
5, 8, 4, 4
5, 8, 8, 7
7, 8, 9, 6
6, 5, 7, 8
5, 9, 4, 5
6, 4, 8, 6
6, 7, 10, 9
5, 11, 14, 3
4, 9, 6, 5
6, 5, 6, 3
7, 8, 5, 7
10, 10, 7, 7
5, 3, 9, 9
8, 12, 10, 2
2, 5, 6, 6
6, 8, 8, 12
7, 11, 12, 8
9, 12, 13, 6
2, 4, 6, 6
5, 8, 7, 7
6, 9, 4, 4
5, 5, 7, 9
6, 12, 9, 8
6, 6, 11, 6
6, 7, 5, 9
9, 8, 6, 10
5, 6, 12, 7
15, 11, 11, 9
5, 12, 16, 10
4, 14, 13, 10
9, 5, 9, 7
6, 7, 6, 8
8, 6, 8, 5
9, 5, 7, 7
7, 9, 12, 9
10, 10, 11, 13
9, 8, 8, 11
6, 11, 11, 7
13, 9, 11, 11
10, 10, 6, 0.000000
3, 13, 12, 8
5, 14, 9, 11
3, 7, 8, 7
11, 10, 10, 13
7, 13, 16, 5
8, 7, 9, 7
11, 10, 11, 7
13, 11, 14, 9
11, 9, 9, 12
13, 9, 14, 22
11, 11, 16, 9
11, 9, 17, 8
8, 7, 10, 8
11, 10, 10, 10
10, 8, 10, 7
12, 17, 10, 16
12, 9, 13, 9
7, 12, 11, 11
8, 9, 17, 19
13, 8, 10, 9
13, 12, 15, 15
10, 12, 12, 20
18, 16, 16, 8
9, 10, 9, 8
14, 10, 13, 11
20, 17, 18, 21
16, 14, 15, 15
19, 14, 14, 15
13, 17, 9, 19
18, 14, 19, 14
19, 17, 12, 20
14, 13, 12, 12
11, 13, 15, 17
15, 17, 27, 21
17, 20, 19, 16
21, 11, 12, 16
15, 17, 19, 23
17, 20, 21, 17
15, 14, 18, 13
17, 23, 18, 16
20, 26, 17, 17
20, 14, 23, 16
17, 19, 17, 12
14, 15, 16, 15
20, 18, 17, 22
15, 28, 16, 13
14, 14, 21, 19
17, 21, 18, 20
35, 20, 20, 17
35, 11, 16, 15
16, 26, 17, 28
28, 18, 14, 20
17, 23, 24, 19
24, 23, 16, 31
23, 21, 25, 16
16, 15, 14, 16
23, 19, 25, 16
24, 24, 21, 24
22, 21, 18, 21
16, 28, 24, 18
19, 18, 24, 28
18, 9, 12, 21
21, 25, 18, 18
21, 24, 16, 9
13, 12, 10, 8
26, 20, 15, 18
26, 22, 27, 21
14, 19, 24, 22
15, 22, 19, 22
23, 14, 22, 15
16, 15, 12, 28
19, 21, 21, 17
19, 23, 29, 20
21, 17, 14, 15
19, 29, 22, 21
18, 11, 18, 14
12, 13, 13, 18
22, 16, 22, 21
22, 28, 22, 27
29, 15, 16, 26
23, 18, 26, 16
25, 24, 27, 34
25, 23, 36, 28
37, 35, 39, 50
49, 45, 31, 34
31, 21, 20, 22
21, 20, 17, 19
13, 15, 15, 18
21, 18, 15, 15
13, 20, 17, 16
14, 20, 24, 16
15, 23, 21, 19
21, 18, 13, 17
17, 18, 16, 14
17, 25, 14, 13
16, 17, 20, 18
19, 15, 10, 17
13, 17, 18, 21
22, 16, 15, 21
21, 17, 18, 16
10, 11, 11, 8
12, 9, 10, 9
18, 14, 14, 11
16, 15, 14, 11
16, 15, 16, 14
10, 12, 14, 11
14, 12, 22, 12
15, 15, 17, 15
16, 15, 13, 14
14, 11, 12, 12
18, 14, 14, 13
17, 18, 10, 11
11, 12, 15, 8
19, 13, 11, 14
15, 14, 9, 11
17, 20, 10, 14
21, 18, 15, 15
15, 14, 18, 15
25, 24, 20, 32
29, 26, 15, 10
17, 16, 14, 15
11, 14, 10, 8
11, 12, 17, 10
10, 15, 12, 13
16, 13, 10, 9
7, 12, 16, 22
11, 9, 13, 12
11, 8, 11, 17
12, 13, 15, 19
13, 14, 19, 22
21, 12, 10, 11
22, 13, 10, 12
19, 19, 14, 12
13, 6, 10, 12
16, 12, 11, 13
10, 11, 10, 11
12, 11, 11, 14
10, 13, 9, 10
7, 13, 11, 10
15, 8, 12, 18
20, 19, 8, 14
34, 28, 28, 14
22, 21, 16, 26
19, 17, 18, 9
8, 4, 8, 17
9, 10, 9, 10
15, 11, 12, 18
17, 15, 11, 8
13, 11, 9, 14
11, 13, 16, 9
5, 10, 14, 12
14, 15, 12, 9
10, 12, 15, 15
15, 11, 11, 13
12, 12, 12, 13
10, 9, 11, 12
15, 12, 16, 14
14, 13, 5, 11
19, 11, 12, 14
14, 11, 11, 10
13, 12, 10, 7
5, 11, 11, 6
12, 6, 10, 8
7, 7, 11, 5
7, 8, 10, 13
13, 11, 6, 6
7, 8, 10, 8
8, 7, 5, 10
11, 5, 8, 12
14, 10, 12, 6
5, 8, 9, 9
9, 11, 11, 12
9, 9, 9, 12
12, 8, 7, 9
7, 10, 9, 11
10, 9, 4, 5
10, 4, 13, 10
9, 9, 9, 9
7, 10, 7, 9
6, 10, 8, 8
4, 2, 13, 12
9, 8, 15, 10
6, 5, 7, 8
3, 6, 8, 13
9, 10, 7, 17
12, 6, 8, 9
8, 11, 7, 12
11, 6, 13, 17
10, 6, 8, 14
12, 11, 10, 9
9, 5, 9, 10
9, 8, 9, 6
5, 5, 8, 6
5, 8, 8, 8
7, 15, 14, 10
9, 9, 11, 8
5, 11, 8, 10
6, 8, 7, 6
5, 10, 7, 1
5, 7, 6, 8
7, 8, 6, 9
4, 8, 5, 8
7, 2, 7, 10
13, 3, 5, 6
6, 7, 7, 8
7, 11, 8, 5
13, 12, 11, 13
13, 12, 9, 7
10, 10, 13, 8
7, 11, 8, 13
8, 11, 10, 4
9, 9, 7, 6
7, 7, 9, 12
8, 6, 7, 3
6, 6, 6, 8
5, 5, 2, 4
7, 10, 5, 6
8, 7, 11, 8
6, 11, 9, 5
10, 9, 9, 6
3, 6, 5, 4
9, 11, 8, 10
11, 5, 6, 5
7, 14, 7, 8
7, 6, 13, 6
5, 14, 7, 7
7, 10, 12, 18
8, 9, 5, 2
4, 8, 10, 8
3, 7, 4, 8
11, 12, 13, 7
9, 6, 12, 9
8, 10, 8, 5
6, 4, 9, 6
6, 5, 3, 11
5, 11, 15, 7
13, 7, 8, 9
10, 8, 11, 8
7, 11, 6, 4
4, 7, 13, 14
5, 7, 7, 6
5, 8, 6, 4
8, 8, 14, 12
7, 12, 13, 7
7, 5, 10, 14
8, 5, 3, 7
10, 8, 7, 10
11, 8, 7, 7
7, 4, 5, 4
4, 1, 11, 1
2, 3, 7, 5
3, 4, 8, 4
4, 8, 6, 3
5, 9, 1, 4
9, 7, 10, 6
8, 5, 6, 12
2, 11, 14, 6
12, 16, 9, 16
5, 9, 5, 3
3, 6, 5, 7
5, 4, 9, 4
4, 8, 10, 4
5, 4, 4, 5
2, 10, 5, 3
9, 4, 8, 11
10, 10, 6, 6
6, 9, 9, 6
7, 8, 6, 5
9, 8, 9, 5
12, 11, 7, 10
4, 8, 6, 6
9, 10, 5, 6
4, 2, 4, 4
6, 4, 3, 7
2, 5, 8, 5
6, 9, 10, 3
2, 2, 5, 2
9, 10, 10, 2
3, 1, 2, 5
3, 4, 8, 6
2, 1, 3, 6
4, 8, 4, 6
6, 8, 5, 7
4, 4, 8, 6
4, 3, 6, 5
4, 6, 1, 4
6, 10, 8, 5
4, 6, 4, 6
5, 10, 6, 3
4, 7, 9, 4
8, 4, 3, 8
5, 5, 2, 5
9, 13, 6, 8
4, 6, 5, 6
2, 2, 5, 7
6, 4, 5, 3
2, 9, 8, 7
5, 3, 3, 2
6, 2, 4, 6
2, 3, 6, 5
4, 5, 9, 7
10, 8, 4, 5
6, 4, 7, 7
6, 7, 4, 5
3, 7, 4, 7
3, 3, 1, 0.000000
3, 6, 5, 4
10, 8, 11, 6
8, 7, 8, 2
5, 11, 2, 3
6, 1, 4, 4
7, 4, 4, 6
8, 3, 5, 1
3, 4, 6, 5
5, 7, 3, 4
4, 4, 4, 7
7, 3, 6, 6
3, 1, 8, 6
6, 8, 5, 6
6, 5, 5, 5
8, 3, 5, 10
7, 2, 7, 5
5, 4, 4, 3
4, 6, 6, 5
12, 10, 8, 7
7, 5, 5, 7
6, 11, 9, 11
5, 7, 6, 5
12, 7, 8, 8
8, 10, 7, 8
8, 4, 7, 8
8, 5, 4, 7
1, 7, 4, 6
2, 3, 5, 1
3, 6, 8, 8
4, 5, 5, 6
4, 5, 8, 4
5, 7, 1, 3
5, 5, 5, 4
4, 3, 7, 2
6, 3, 1, 6
6, 5, 6, 6
1, 6, 8, 5
6, 3, 3, 6
3, 5, 5, 6
6, 5, 8, 7
9, 4, 5, 4
7, 5, 2, 2
6, 8, 4, 1
4, 7, 9, 9
10, 3, 5, 7
7, 2, 4, 3
3, 5, 5, 7
4, 4, 4, 4
2, 7, 4, 4
6, 5, 6, 8
3, 7, 4, 1
5, 6, 5, 2
3, 9, 7, 6
8, 2, 5, 7
6, 6, 10, 8
4, 6, 3, 0.000000
8, 9, 7, 7
6, 6, 7, 4
2, 6, 11, 7
3, 1, 7, 8
3, 6, 4, 6
2, 2, 4, 2
6, 5, 5, 4
9, 8, 2, 6
6, 3, 5, 3
6, 5, 8, 6
8, 4, 5, 2
5, 6, 3, 9
6, 7, 3, 6
5, 3, 4, 5
4, 3, 5, 4
5, 4, 8, 7
6, 5, 4, 2
6, 6, 0.000000, 4
4, 3, 1, 4
7, 2, 3, 8
9, 2, 6, 6
6, 4, 5, 4
7, 2, 1, 10
7, 9, 7, 8
7, 3, 3, 8
5, 4, 5, 3
7, 11, 8, 7
3, 3, 7, 5
7, 4, 3, 6
2, 9, 6, 10
4, 7, 5, 5
7, 6, 3, 5
5, 9, 5, 8
3, 4, 4, 7
5, 10, 2, 5
7, 4, 3, 0.000000
3, 8, 6, 8
5, 4, 2, 6
7, 9, 8, 4
6, 9, 4, 5
4, 3, 4, 7
9, 9, 8, 4
4, 4, 9, 3
5, 6, 7, 3
4, 5, 4, 9
5, 3, 7, 4
6, 6, 1, 3
4, 4, 11, 6
4, 4, 3, 8
7, 9, 6, 3
3, 2, 3, 3
11, 8, 5, 11
4, 6, 4, 6
6, 3, 8, 9
7, 10, 8, 3
3, 7, 5, 5
8, 6, 4, 3
5, 11, 6, 5
5, 2, 3, 5
4, 5, 4, 4
5, 7, 3, 4
9, 8, 3, 5
7, 3, 3, 3
2, 5, 4, 7
5, 4, 5, 3
6, 5, 8, 5
6, 2, 3, 3
2, 5, 5, 5
2, 4, 2, 7
3, 8, 7, 6
5, 2, 5, 6
4, 8, 4, 6
9, 6, 6, 8
7, 6, 10, 5
2, 4, 3, 4
3, 3, 2, 4
3, 2, 4, 4
7, 6, 6, 4
5, 7, 4, 7
7, 6, 3, 2
5, 3, 2, 5
9, 7, 3, 1
0.000000, 1, 2, 4
6, 6, 8, 5
5, 9, 7, 4
6, 3, 2, 6
8, 4, 6, 4
11, 5, 5, 6
5, 3, 5, 2
4, 6, 5, 7
7, 7, 9, 5
4, 0.000000, 2, 3
4, 3, 4, 6
5, 5, 2, 4
5, 4, 4, 8
6, 11, 13, 11
8, 7, 6, 7
8, 3, 4, 7
3, 2, 3, 2
4, 7, 5, 6
5, 3, 12, 7
5, 6, 5, 4
2, 5, 5, 4
6, 7, 6, 4
4, 2, 4, 4
3, 2, 4, 5
10, 6, 4, 5
5, 4, 6, 8
7, 7, 4, 2
4, 4, 6, 3
5, 5, 0.000000, 7
7, 2, 4, 9
2, 2, 3, 7
5, 5, 7, 8
3, 4, 1, 5
4, 2, 5, 6
1, 3, 6, 5
3, 6, 0.000000, 3
3, 5, 6, 4
4, 4, 2, 6
2, 2, 7, 6
8, 1, 8, 6
4, 4, 5, 5
5, 9, 4, 4
6, 7, 4, 7
2, 4, 7, 8
5, 4, 4, 8
11, 6, 10, 4
3, 5, 1, 6
8, 6, 2, 6
1, 1, 2, 1
1, 4, 4, 4
5, 7, 6, 3
3, 4, 2, 2
2, 2, 3, 5
4, 5, 5, 5
4, 6, 6, 6
1, 5, 3, 1
5, 4, 3, 2
2, 8, 8, 5
5, 4, 7, 7
7, 4, 9, 5
7, 9, 4, 4
7, 3, 5, 7
3, 5, 6, 5
4, 8, 10, 10
5, 4, 13, 7
5, 6, 3, 6
7, 4, 4, 4
4, 3, 2, 6
3, 3, 5, 5
4, 6, 8, 3
1, 3, 6, 3
4, 6, 6, 4
3, 2, 3, 5
5, 4, 2, 6
6, 6, 4, 5
5, 2, 5, 4
5, 3, 3, 7
3, 9, 7, 7
5, 3, 3, 5
3, 5, 6, 2
3, 4, 6, 5
4, 6, 7, 5
4, 10, 3, 5
5, 4, 2, 5
7, 6, 5, 5
3, 2, 6, 5
2, 1, 7, 7
6, 4, 3, 7
10, 7, 4, 5
3, 4, 1, 1
6, 7, 9, 5
2, 6, 7, 7
4, 4, 7, 5
4, 3, 2, 2
2, 3, 4, 5
5, 5, 2, 3
6, 4, 3, 1
5, 4, 5, 11
8, 3, 6, 7
6, 3, 5, 8
8, 4, 4, 2
1, 6, 4, 3
4, 7, 5, 5
4, 8, 2, 5
3, 2, 1, 7
4, 8, 3, 0.000000
2, 5, 5, 7
6, 3, 3, 8
5, 5, 5, 4
3, 4, 5, 5
6, 4, 5, 3
4, 4, 6, 6
7, 5, 4, 5
3, 3, 5, 6
7, 7, 4, 6
7, 3, 3, 2
1, 4, 6, 5
6, 4, 4, 1
6, 8, 7, 4
3, 3, 7, 6
9, 9, 12, 10
7, 5, 2, 6
6, 5, 6, 6
7, 6, 9, 7
7, 8, 7, 5
4, 9, 8, 7
7, 6, 6, 5
1, 6, 3, 7
8, 4, 2, 3
3, 0.000000, 4, 4
7, 6, 8, 8
4, 6, 6, 9
9, 4, 3, 6
8, 9, 10, 4
3, 6, 8, 6
2, 4, 4, 7
4, 5, 5, 5
3, 5, 8, 3
1, 6, 4, 7
5, 4, 8, 7
5, 4, 4, 4
6, 2, 7, 2
4, 7, 5, 2
1, 4, 4, 7
6, 9, 4, 5
3, 10, 10, 4
5, 7, 6, 6
4, 2, 3, 6
3, 8, 4, 6
3, 5, 4, 5
5, 4, 5, 8
6, 3, 5, 8
3, 3, 4, 3
1, 2, 7, 6
4, 4, 6, 1
2, 6, 3, 6
5, 9, 5, 4
5, 4, 5, 3
3, 4, 7, 5
3, 3, 3, 3
5, 9, 8, 5
3, 5, 6, 7
1, 5, 4, 3
5, 5, 3, 3
2, 5, 6, 2
4, 4, 5, 5
10, 6, 10, 6
10, 4, 3, 5
6, 4, 4, 4
6, 5, 5, 6
2, 5, 8, 7
6, 4, 8, 9
7, 5, 3, 3
4, 6, 7, 4
8, 3, 1, 3
2, 6, 4, 5
2, 2, 4, 6
8, 5, 5, 6
4, 5, 3, 7
4, 5, 7, 7
6, 2, 5, 8
2, 5, 7, 8
8, 9, 4, 2
4, 3, 4, 5
10, 4, 3, 6
2, 2, 6, 5
3, 7, 3, 4
3, 3, 5, 4
3, 3, 7, 8
2, 4, 2, 4
3, 4, 2, 2
4, 4, 5, 3
4, 2, 8, 8
8, 4, 2, 4
2, 5, 1, 4
3, 6, 7, 11
6, 2, 1, 2
8, 9, 4, 6
7, 4, 7, 9
6, 5, 7, 4
5, 5, 6, 5
4, 5, 7, 4
2, 1, 2, 6
7, 3, 3, 2
4, 3, 6, 3
3, 7, 2, 6
3, 7, 4, 7
3, 7, 7, 3
3, 3, 5, 7
7, 3, 6, 6
4, 4, 3, 3
3, 1, 4, 4
4, 5, 6, 9
5, 5, 3, 4
3, 3, 11, 7
5, 4, 7, 4
6, 5, 5, 7
12, 2, 0.000000, 5
0.000000, 6, 4, 2
1, 2, 5, 3
9, 5, 2, 4
6, 7, 1, 2
4, 2, 3, 4
9, 7, 10, 4
4, 8, 10, 11
5, 4, 3, 4
2, 5, 4, 4
4, 4, 6, 7
6, 7, 2, 3
6, 1, 2, 4
3, 1, 4, 4
1, 4, 4, 6
0.000000, 3, 1, 2
4, 9, 4, 3
9, 7, 6, 7
5, 4, 10, 1
3, 4, 4, 4
1, 5, 6, 4
4, 7, 5, 7
3, 5, 4, 7
3, 3, 4, 2
6, 3, 6, 6
7, 9, 5, 2
2, 3, 4, 5
8, 5, 5, 7
7, 2, 3, 4
3, 5, 2, 6
7, 5, 7, 6
4, 4, 7, 7
6, 11, 5, 9
12, 7, 3, 3
4, 8, 6, 3
4, 7, 2, 4
3, 4, 4, 2
1, 6, 7, 1
0.000000, 3, 3, 7
7, 2, 8, 5
2, 0.000000, 5, 6
3, 3, 5, 3
9, 7, 3, 1
0.000000, 2, 6, 4
4, 9, 4, 6
4, 3, 4, 2
5, 5, 3, 5
1, 1, 5, 8
3, 1, 7, 6
6, 4, 6, 5
5, 3, 4, 5
5, 4, 5, 9
6, 4, 8, 4
8, 7, 9, 4
7, 5, 6, 5
4, 2, 4, 7
5, 3, 0.000000, 1
1, 6, 3, 4
4, 7, 6, 4
2, 4, 2, 10
2, 3, 6, 2
8, 10, 2, 3
5, 6, 4, 4
3, 5, 3, 5
3, 3, 3, 4
4, 6, 2, 4
4, 3, 3, 6
6, 1, 4, 3
5, 4, 2, 3
3, 4, 5, 3
5, 5, 2, 1
7, 5, 7, 4
4, 4, 7, 5
5, 2, 4, 6
5, 6, 4, 7
7, 3, 0.000000, 6
3, 3, 2, 2
5, 3, 10, 7
5, 4, 2, 4
4, 3, 7, 3
2, 3, 5, 6
2, 2, 6, 3
7, 5, 3, 7
5, 1, 3, 5
7, 6, 5, 3
4, 4, 4, 8
5, 3, 5, 3
2, 7, 2, 4
5, 2, 0.000000, 3
6, 3, 3, 6
12, 4, 5, 1
2, 1, 3, 9
3, 5, 5, 6
7, 6, 7, 3
3, 12, 7, 4
4, 3, 8, 3
4, 6, 6, 3
3, 3, 8, 10
2, 6, 1, 5
7, 9, 6, 4
2, 4, 3, 4
4, 9, 8, 3
3, 5, 9, 3
2, 3, 3, 3
5, 3, 4, 6
2, 4, 3, 6
4, 6, 3, 5
1, 2, 6, 5
2, 5, 4, 6
6, 5, 2, 9
3, 3, 6, 2
3, 4, 1, 2
6, 4, 6, 9
6, 4, 5, 8
9, 8, 8, 5
2, 3, 5, 6
9, 4, 3, 6
6, 5, 2, 3
4, 5, 8, 2
4, 8, 4, 1
6, 5, 5, 7
5, 8, 4, 6
6, 2, 6, 7
3, 7, 7, 5
3, 4, 3, 5
7, 2, 5, 7
2, 5, 6, 8
6, 4, 8, 5
6, 9, 6, 6
2, 0.000000, 7, 2
6, 7, 5, 6
6, 7, 4, 2
5, 5, 4, 3
8, 6, 5, 3
4, 5, 4, 3
5, 4, 4, 2
2, 4, 4, 7
3, 1, 3, 1
5, 5, 6, 3
3, 5, 3, 3
3, 5, 1, 2
6, 3, 2, 8
3, 7, 6, 6
2, 5, 4, 7
3, 6, 8, 8
6, 8, 6, 4
8, 6, 3, 2
4, 6, 1, 3
3, 3, 5, 5
3, 2, 3, 4
2, 3, 4, 3
4, 3, 2, 3
7, 5, 4, 5
4, 4, 4, 5
3, 4, 2, 4
1, 2, 6, 3
3, 5, 5, 3
3, 7, 2, 3
4, 6, 4, 5
1, 5, 6, 5
2, 7, 3, 2
4, 8, 3, 5
1, 1, 6, 3
3, 3, 4, 4
5, 1, 2, 7
5, 2, 4, 3
6, 3, 4, 4
1, 3, 3, 3
3, 6, 7, 4
5, 3, 3, 8
5, 4, 6, 4
7, 7, 5, 4
3, 2, 5, 6
4, 3, 2, 2
2, 5, 7, 3
6, 3, 2, 7
6, 2, 8, 8
8, 1, 3, 1
2, 2, 2, 3
8, 6, 2, 3
3, 6, 7, 5
3, 4, 4, 2
2, 3, 3, 6
1, 5, 4, 6
2, 1, 1, 2
4, 2, 3, 0.000000
4, 2, 2, 2
1, 3, 5, 6
2, 5, 2, 1
3, 1, 1, 3
3, 5, 1, 0.000000
2, 4, 1, 3
2, 2, 5, 4
3, 4, 3, 3
6, 4, 7, 3
2, 2, 3, 0.000000
0.000000, 2, 3, 0.000000
2, 3, 2, 1
3, 6, 5, 4
1, 2, 3, 2
1, 0.000000, 2, 6
1, 2, 3, 6
2, 4, 6, 2
3, 1, 5, 2
7, 7, 6, 2
4, 1, 5, 4
3, 0.000000, 3, 6
3, 2, 1, 3
2, 3, 4, 2
3, 3, 1, 1
4, 3, 1, 3
2, 4, 2, 3
2, 3, 2, 6
2, 4, 3, 2
1, 3, 1, 4
6, 2, 1, 4
6, 6, 2, 2
3, 3, 2, 1
3, 2, 4, 1
2, 2, 4, 2
4, 2, 5, 3
4, 4, 2, 2
2, 3, 1, 2
6, 7, 5, 3
4, 3, 3, 3
1, 1, 0.000000, 1
4, 3, 2, 3
3, 2, 2, 2
3, 6, 7, 6
1, 2, 5, 3
0.000000, 4, 3, 8
4, 2, 0.000000, 5
3, 5, 2, 0.000000
1, 5, 2, 2
2, 5, 2, 3
3, 3, 6, 2
5, 3, 5, 0.000000
3, 0.000000, 3, 3
1, 6, 4, 3
0.000000, 3, 5, 4
4, 1, 3, 2
0.000000, 4, 3, 2
5, 4, 0.000000, 1
3, 4, 4, 2
4, 3, 2, 3
0.000000, 0.000000, 3, 7
4, 3, 5, 5
1, 2, 3, 3
1, 3, 1, 4
6, 1, 0.000000, 2
4, 0.000000, 0.000000, 2
6, 4, 1, 1
3, 1, 3, 5
2, 2, 1, 1
3, 2, 4, 2
8, 3, 4, 3
1, 3, 5, 2
1, 3, 2, 3
3
*END

*EOF