File: 数据/xrd/望军4个xrd10分钟-03.22/cnt-s_Theta_2-Theta.TXT
Sample
Comments
Filename	G:\ceshi\20230223\wangjun410-03.22\cnt-s_Theta_2-Theta.raw

Goniometer	MiniFlex 300/600
Attachment	Air-sensitive Sample Holder
Monochromater	None

X	0
Y	0
Z	0
10	375
10.06	450
10.12	525
10.18	750
10.24	375
10.3	375
10.36	600
10.42	450
10.48	150
10.54	750
10.6	600
10.66	525
10.72	525
10.78	675
10.84	300
10.9	450
10.96	525
11.02	300
11.08	450
11.14	750
11.2	450
11.26	525
11.32	375
11.38	825
11.44	525
11.5	450
11.56	225
11.62	450
11.68	300
11.74	675
11.8	825
11.86	375
11.92	450
11.98	300
12.04	750
12.1	300
12.16	525
12.22	525
12.28	675
12.34	375
12.4	300
12.46	75
12.52	900
12.58	75
12.64	525
12.7	450
12.76	600
12.82	750
12.88	450
12.94	600
13	825
13.06	750
13.12	525
13.18	450
13.24	750
13.3	900
13.36	675
13.42	750
13.48	750
13.54	375
13.6	750
13.66	675
13.72	975
13.78	825
13.84	300
13.9	375
13.96	675
14.02	600
14.08	375
14.14	375
14.2	450
14.26	750
14.32	675
14.38	525
14.44	450
14.5	600
14.56	675
14.62	225
14.68	750
14.74	1050
14.8	825
14.86	825
14.92	975
14.98	300
15.04	750
15.1	825
15.16	600
15.22	525
15.28	1125
15.34	1350
15.4	750
15.46	600
15.52	900
15.58	600
15.64	675
15.7	600
15.76	450
15.82	975
15.88	525
15.94	675
16	150
16.06	600
16.12	750
16.18	750
16.24	750
16.3	675
16.36	975
16.42	300
16.48	600
16.54	750
16.6	675
16.66	450
16.72	900
16.78	450
16.84	525
16.9	600
16.96	600
17.02	525
17.08	750
17.14	825
17.2	900
17.26	675
17.32	750
17.38	825
17.44	750
17.5	600
17.56	750
17.62	975
17.68	750
17.74	750
17.8	525
17.86	975
17.92	900
17.98	675
18.04	825
18.1	1050
18.16	975
18.22	750
18.28	900
18.34	825
18.4	600
18.46	900
18.52	750
18.58	825
18.64	1125
18.7	675
18.76	1125
18.82	675
18.88	1125
18.94	900
19	1050
19.06	900
19.12	975
19.18	975
19.24	750
19.3	1125
19.36	1500
19.42	900
19.48	975
19.54	1050
19.6	1575
19.66	975
19.72	1500
19.78	975
19.84	975
19.9	1125
19.96	900
20.02	1275
20.08	2100
20.14	1050
20.2	1575
20.26	1650
20.32	1500
20.38	1425
20.44	975
20.5	1425
20.56	1425
20.62	1050
20.68	525
20.74	975
20.8	825
20.86	825
20.92	1050
20.98	1425
21.04	1200
21.1	1125
21.16	1350
21.22	1425
21.28	1425
21.34	1275
21.4	1425
21.46	1200
21.52	1500
21.58	975
21.64	1425
21.7	1200
21.76	975
21.82	1125
21.88	1875
21.94	1275
22	675
22.06	1200
22.12	1050
22.18	750
22.24	1275
22.3	1425
22.36	1350
22.42	1275
22.48	975
22.54	1125
22.6	1725
22.66	1275
22.72	1575
22.78	1650
22.84	2175
22.9	2550
22.96	3075
23.02	4950
23.08	3450
23.14	2325
23.2	1725
23.26	1950
23.32	1800
23.38	975
23.44	1575
23.5	1275
23.56	1350
23.62	1200
23.68	2475
23.74	2025
23.8	2025
23.86	1575
23.92	1575
23.98	1875
24.04	1500
24.1	1500
24.16	1425
24.22	1950
24.28	1875
24.34	2325
24.4	1500
24.46	1050
24.52	1575
24.58	1725
24.64	1275
24.7	1875
24.76	975
24.82	975
24.88	1725
24.94	1350
25	2025
25.06	750
25.12	750
25.18	1350
25.24	1275
25.3	1500
25.36	1725
25.42	1350
25.48	900
25.54	2025
25.6	1500
25.66	2100
25.72	2175
25.78	2175
25.84	2775
25.9	2250
25.96	2325
26.02	1350
26.08	1125
26.14	1050
26.2	1125
26.26	675
26.32	750
26.38	1500
26.44	1200
26.5	1200
26.56	1425
26.62	1425
26.68	1425
26.74	825
26.8	975
26.86	975
26.92	1350
26.98	1275
27.04	1050
27.1	1050
27.16	900
27.22	825
27.28	1125
27.34	975
27.4	1200
27.46	1200
27.52	1425
27.58	1950
27.64	1875
27.7	2250
27.76	1500
27.82	1350
27.88	975
27.94	975
28	1125
28.06	750
28.12	825
28.18	750
28.24	675
28.3	450
28.36	975
28.42	1050
28.48	675
28.54	750
28.6	1050
28.66	975
28.72	1350
28.78	1275
28.84	1425
28.9	1350
28.96	900
29.02	1200
29.08	750
29.14	750
29.2	1275
29.26	675
29.32	750
29.38	600
29.44	525
29.5	1500
29.56	600
29.62	525
29.68	900
29.74	975
29.8	525
29.86	600
29.92	975
29.98	1125
30.04	600
30.1	450
30.16	375
30.22	300
30.28	450
30.34	825
30.4	675
30.46	600
30.52	675
30.58	225
30.64	375
30.7	900
30.76	525
30.82	900
30.88	900
30.94	600
31	525
31.06	525
31.12	900
31.18	450
31.24	1275
31.3	1050
31.36	675
31.42	900
31.48	900
31.54	600
31.6	375
31.66	375
31.72	750
31.78	300
31.84	375
31.9	525
31.96	450
32.02	675
32.08	375
32.14	375
32.2	225
32.26	750
32.32	450
32.38	300
32.44	525
32.5	375
32.56	525
32.62	300
32.68	375
32.74	300
32.8	600
32.86	675
32.92	300
32.98	375
33.04	600
33.1	300
33.16	375
33.22	675
33.28	750
33.34	750
33.4	750
33.46	375
33.52	375
33.58	300
33.64	375
33.7	750
33.76	300
33.82	600
33.88	450
33.94	675
34	600
34.06	900
34.12	300
34.18	675
34.24	900
34.3	300
34.36	525
34.42	300
34.48	525
34.54	375
34.6	450
34.66	450
34.72	600
34.78	1050
34.84	525
34.9	600
34.96	825
35.02	525
35.08	375
35.14	600
35.2	825
35.26	525
35.32	375
35.38	450
35.44	450
35.5	375
35.56	375
35.62	600
35.68	600
35.74	300
35.8	750
35.86	450
35.92	450
35.98	525
36.04	1275
36.1	450
36.16	450
36.22	600
36.28	300
36.34	375
36.4	450
36.46	450
36.52	450
36.58	525
36.64	525
36.7	600
36.76	300
36.82	750
36.88	975
36.94	675
37	1050
37.06	600
37.12	750
37.18	600
37.24	750
37.3	525
37.36	600
37.42	375
37.48	675
37.54	300
37.6	525
37.66	450
37.72	525
37.78	375
37.84	450
37.9	750
37.96	675
38.02	300
38.08	525
38.14	300
38.2	300
38.26	300
38.32	600
38.38	525
38.44	525
38.5	300
38.56	150
38.62	450
38.68	300
38.74	300
38.8	300
38.86	225
38.92	600
38.98	150
39.04	600
39.1	150
39.16	300
39.22	525
39.28	225
39.34	150
39.4	375
39.46	150
39.52	525
39.58	525
39.64	225
39.7	450
39.76	375
39.82	675
39.88	450
39.94	450
40	300
40.06	225
40.12	450
40.18	300
40.24	600
40.3	150
40.36	450
40.42	375
40.48	300
40.54	825
40.6	450
40.66	225
40.72	600
40.78	150
40.84	300
40.9	225
40.96	375
41.02	300
41.08	450
41.14	225
41.2	300
41.26	375
41.32	300
41.38	375
41.44	150
41.5	150
41.56	750
41.62	150
41.68	225
41.74	375
41.8	225
41.86	600
41.92	150
41.98	150
42.04	525
42.1	525
42.16	450
42.22	675
42.28	375
42.34	300
42.4	0
42.46	375
42.52	375
42.58	600
42.64	450
42.7	750
42.76	525
42.82	675
42.88	525
42.94	450
43	750
43.06	600
43.12	375
43.18	375
43.24	150
43.3	300
43.36	225
43.42	450
43.48	300
43.54	300
43.6	300
43.66	300
43.72	375
43.78	225
43.84	600
43.9	450
43.96	300
44.02	600
44.08	300
44.14	375
44.2	150
44.26	225
44.32	450
44.38	300
44.44	375
44.5	450
44.56	450
44.62	75
44.68	150
44.74	600
44.8	525
44.86	300
44.92	525
44.98	300
45.04	525
45.1	900
45.16	525
45.22	225
45.28	525
45.34	450
45.4	600
45.46	225
45.52	525
45.58	600
45.64	600
45.7	375
45.76	600
45.82	450
45.88	300
45.94	600
46	225
46.06	675
46.12	375
46.18	300
46.24	525
46.3	150
46.36	75
46.42	450
46.48	375
46.54	225
46.6	450
46.66	600
46.72	75
46.78	300
46.84	450
46.9	225
46.96	450
47.02	375
47.08	75
47.14	300
47.2	450
47.26	525
47.32	375
47.38	225
47.44	225
47.5	375
47.56	300
47.62	525
47.68	450
47.74	600
47.8	450
47.86	225
47.92	450
47.98	600
48.04	375
48.1	600
48.16	375
48.22	75
48.28	225
48.34	300
48.4	450
48.46	300
48.52	300
48.58	300
48.64	300
48.7	300
48.76	600
48.82	375
48.88	225
48.94	225
49	300
49.06	525
49.12	375
49.18	525
49.24	525
49.3	675
49.36	300
49.42	675
49.48	525
49.54	450
49.6	675
49.66	375
49.72	225
49.78	525
49.84	450
49.9	750
49.96	450
50.02	225
50.08	300
50.14	750
50.2	525
50.26	0
50.32	300
50.38	375
50.44	525
50.5	825
50.56	450
50.62	225
50.68	150
50.74	150
50.8	300
50.86	600
50.92	525
50.98	375
51.04	225
51.1	525
51.16	450
51.22	675
51.28	525
51.34	525
51.4	825
51.46	300
51.52	450
51.58	225
51.64	1125
51.7	600
51.76	225
51.82	450
51.88	300
51.94	225
52	525
52.06	675
52.12	600
52.18	675
52.24	375
52.3	675
52.36	675
52.42	300
52.48	375
52.54	300
52.6	375
52.66	300
52.72	225
52.78	750
52.84	300
52.9	450
52.96	525
53.02	525
53.08	375
53.14	450
53.2	600
53.26	450
53.32	375
53.38	75
53.44	450
53.5	600
53.56	300
53.62	600
53.68	375
53.74	375
53.8	675
53.86	750
53.92	600
53.98	600
54.04	75
54.1	525
54.16	300
54.22	225
54.28	75
54.34	450
54.4	150
54.46	375
54.52	450
54.58	525
54.64	225
54.7	450
54.76	300
54.82	300
54.88	375
54.94	675
55	450
55.06	375
55.12	450
55.18	150
55.24	450
55.3	375
55.36	450
55.42	300
55.48	300
55.54	225
55.6	375
55.66	375
55.72	450
55.78	525
55.84	300
55.9	375
55.96	150
56.02	825
56.08	375
56.14	450
56.2	600
56.26	300
56.32	375
56.38	450
56.44	225
56.5	225
56.56	225
56.62	600
56.68	750
56.74	225
56.8	225
56.86	150
56.92	225
56.98	375
57.04	300
57.1	450
57.16	450
57.22	375
57.28	300
57.34	225
57.4	450
57.46	525
57.52	450
57.58	375
57.64	900
57.7	825
57.76	225
57.82	450
57.88	525
57.94	150
58	825
58.06	450
58.12	450
58.18	75
58.24	600
58.3	300
58.36	225
58.42	0
58.48	225
58.54	300
58.6	150
58.66	375
58.72	300
58.78	225
58.84	450
58.9	300
58.96	675
59.02	300
59.08	150
59.14	375
59.2	300
59.26	375
59.32	225
59.38	150
59.44	300
59.5	675
59.56	150
59.62	300
59.68	375
59.74	300
59.8	825
59.86	450
59.92	150
59.98	375
60.04	450
60.1	450
60.16	375
60.22	375
60.28	375
60.34	150
60.4	300
60.46	225
60.52	225
60.58	150
60.64	525
60.7	300
60.76	375
60.82	375
60.88	225
60.94	150
61	375
61.06	375
61.12	225
61.18	300
61.24	225
61.3	375
61.36	300
61.42	375
61.48	450
61.54	150
61.6	375
61.66	600
61.72	150
61.78	300
61.84	525
61.9	450
61.96	300
62.02	300
62.08	150
62.14	600
62.2	75
62.26	525
62.32	150
62.38	150
62.44	300
62.5	225
62.56	525
62.62	375
62.68	450
62.74	300
62.8	225
62.86	225
62.92	450
62.98	450
63.04	525
63.1	450
63.16	375
63.22	375
63.28	525
63.34	150
63.4	375
63.46	75
63.52	525
63.58	150
63.64	375
63.7	150
63.76	300
63.82	600
63.88	600
63.94	525
64	375
64.06	300
64.12	300
64.18	375
64.24	525
64.3	225
64.36	300
64.42	150
64.48	450
64.54	450
64.6	375
64.66	375
64.72	600
64.78	225
64.84	450
64.9	450
64.96	75
65.02	450
65.08	300
65.14	300
65.2	225
65.26	675
65.32	450
65.38	225
65.44	375
65.5	300
65.56	375
65.62	600
65.68	375
65.74	525
65.8	225
65.86	300
65.92	225
65.98	375
66.04	375
66.1	375
66.16	150
66.22	225
66.28	225
66.34	525
66.4	225
66.46	300
66.52	225
66.58	450
66.64	450
66.7	150
66.76	450
66.82	375
66.88	300
66.94	450
67	300
67.06	225
67.12	675
67.18	300
67.24	300
67.3	675
67.36	300
67.42	300
67.48	300
67.54	375
67.6	75
67.66	75
67.72	450
67.78	375
67.84	300
67.9	300
67.96	225
68.02	525
68.08	225
68.14	675
68.2	300
68.26	150
68.32	150
68.38	150
68.44	375
68.5	150
68.56	300
68.62	225
68.68	225
68.74	300
68.8	525
68.86	150
68.92	300
68.98	300
69.04	75
69.1	525
69.16	375
69.22	150
69.28	300
69.34	300
69.4	300
69.46	375
69.52	150
69.58	225
69.64	150
69.7	450
69.76	300
69.82	225
69.88	75
69.94	600
70	300
70.06	375
70.12	375
70.18	525
70.24	225
70.3	600
70.36	450
70.42	225
70.48	300
70.54	150
70.6	150
70.66	600
70.72	600
70.78	375
70.84	225
70.9	300
70.96	375
71.02	375
71.08	375
71.14	300
71.2	600
71.26	375
71.32	450
71.38	150
71.44	150
71.5	225
71.56	150
71.62	300
71.68	600
71.74	225
71.8	225
71.86	225
71.92	375
71.98	300
72.04	450
72.1	150
72.16	375
72.22	375
72.28	375
72.34	75
72.4	750
72.46	525
72.52	225
72.58	450
72.64	150
72.7	600
72.76	300
72.82	525
72.88	150
72.94	75
73	375
73.06	225
73.12	75
73.18	300
73.24	75
73.3	375
73.36	450
73.42	375
73.48	0
73.54	150
73.6	300
73.66	300
73.72	375
73.78	225
73.84	300
73.9	300
73.96	150
74.02	525
74.08	150
74.14	300
74.2	225
74.26	525
74.32	150
74.38	150
74.44	150
74.5	225
74.56	150
74.62	225
74.68	375
74.74	375
74.8	150
74.86	225
74.92	150
74.98	300
75.04	150
75.1	150
75.16	75
75.22	150
75.28	225
75.34	300
75.4	375
75.46	150
75.52	0
75.58	150
75.64	75
75.7	225
75.76	450
75.82	300
75.88	300
75.94	225
76	450
76.06	450
76.12	450
76.18	225
76.24	300
76.3	450
76.36	75
76.42	150
76.48	375
76.54	225
76.6	150
76.66	225
76.72	375
76.78	525
76.84	300
76.9	225
76.96	300
77.02	300
77.08	150
77.14	150
77.2	300
77.26	600
77.32	525
77.38	300
77.44	150
77.5	375
77.56	300
77.62	225
77.68	225
77.74	150
77.8	300
77.86	225
77.92	300
77.98	225
78.04	300
78.1	0
78.16	225
78.22	375
78.28	375
78.34	225
78.4	150
78.46	150
78.52	75
78.58	225
78.64	450
78.7	750
78.76	150
78.82	375
78.88	225
78.94	450
79	450
79.06	75
79.12	225
79.18	75
79.24	300
79.3	375
79.36	75
79.42	150
79.48	150
79.54	225
79.6	225
79.66	150
79.72	150
79.78	225
79.84	75
79.9	150
79.96	375
80.02	450
80.08	225
80.14	375
80.2	225
80.26	225
80.32	375
80.38	600
80.44	300
80.5	150
80.56	225
80.62	0
80.68	450
80.74	300
80.8	225
80.86	150
80.92	375
80.98	150
81.04	150
81.1	225
81.16	75
81.22	0
81.28	150
81.34	225
81.4	225
81.46	225
81.52	375
81.58	150
81.64	225
81.7	150
81.76	150
81.82	450
81.88	300
81.94	375
82	300
82.06	300
82.12	300
82.18	300
82.24	225
82.3	525
82.36	300
82.42	225
82.48	75
82.54	225
82.6	150
82.66	450
82.72	300
82.78	75
82.84	150
82.9	150
82.96	225
83.02	225
83.08	75
83.14	75
83.2	300
83.26	150
83.32	300
83.38	75
83.44	375
83.5	600
83.56	75
83.62	300
83.68	75
83.74	150
83.8	150
83.86	0
83.92	150
83.98	300
84.04	300
84.1	150
84.16	75
84.22	225
84.28	450
84.34	0
84.4	75
84.46	150
84.52	225
84.58	225
84.64	225
84.7	300
84.76	600
84.82	300
84.88	225
84.94	150
85	150
85.06	225
85.12	300
85.18	225
85.24	150
85.3	300
85.36	75
85.42	300
85.48	375
85.54	225
85.6	525
85.66	150
85.72	75
85.78	300
85.84	300
85.9	75
85.96	300
86.02	225
86.08	300
86.14	300
86.2	0
86.26	150
86.32	225
86.38	75
86.44	225
86.5	225
86.56	0
86.62	150
86.68	150
86.74	225
86.8	300
86.86	0
86.92	225
86.98	225
87.04	150
87.1	225
87.16	300
87.22	300
87.28	75
87.34	75
87.4	150
87.46	450
87.52	225
87.58	300
87.64	75
87.7	150
87.76	75
87.82	225
87.88	225
87.94	0
88	225
88.06	300
88.12	150
88.18	150
88.24	75
88.3	225
88.36	75
88.42	525
88.48	150
88.54	150
88.6	75
88.66	0
88.72	150
88.78	0
88.84	225
88.9	225
88.96	150
89.02	150
89.08	225
89.14	300
89.2	0
89.26	150
89.32	0
89.38	300
89.44	450
89.5	150
89.56	225
89.62	225
89.68	75
89.74	300
89.8	375
89.86	225
89.92	75
89.98	300
90	300