File: 数据/xrd/望军4个xrd10分钟-03.22/cnt-fe3o4_Theta_2-Theta.TXT
Sample
Comments
Filename	G:\ceshi\20230223\wangjun410-03.22\cnt-fe3o4_Theta_2-Theta.raw

Goniometer	MiniFlex 300/600
Attachment	Air-sensitive Sample Holder
Monochromater	None

X	0
Y	0
Z	0
10	600
10.06	525
10.12	525
10.18	450
10.24	450
10.3	675
10.36	525
10.42	375
10.48	225
10.54	675
10.6	225
10.66	750
10.72	300
10.78	525
10.84	225
10.9	150
10.96	600
11.02	525
11.08	450
11.14	750
11.2	300
11.26	300
11.32	525
11.38	225
11.44	675
11.5	600
11.56	450
11.62	675
11.68	375
11.74	675
11.8	225
11.86	600
11.92	300
11.98	525
12.04	525
12.1	300
12.16	525
12.22	525
12.28	600
12.34	450
12.4	525
12.46	525
12.52	375
12.58	675
12.64	225
12.7	225
12.76	300
12.82	525
12.88	675
12.94	150
13	375
13.06	675
13.12	600
13.18	300
13.24	750
13.3	600
13.36	375
13.42	525
13.48	675
13.54	375
13.6	375
13.66	375
13.72	600
13.78	525
13.84	375
13.9	225
13.96	450
14.02	375
14.08	525
14.14	525
14.2	525
14.26	225
14.32	600
14.38	150
14.44	450
14.5	600
14.56	525
14.62	600
14.68	975
14.74	300
14.8	375
14.86	525
14.92	300
14.98	375
15.04	450
15.1	600
15.16	825
15.22	525
15.28	675
15.34	750
15.4	900
15.46	825
15.52	375
15.58	750
15.64	975
15.7	375
15.76	450
15.82	600
15.88	600
15.94	375
16	525
16.06	675
16.12	825
16.18	600
16.24	450
16.3	525
16.36	825
16.42	750
16.48	225
16.54	600
16.6	675
16.66	525
16.72	825
16.78	975
16.84	1200
16.9	525
16.96	825
17.02	525
17.08	1050
17.14	675
17.2	975
17.26	1650
17.32	1200
17.38	675
17.44	600
17.5	600
17.56	750
17.62	600
17.68	900
17.74	1200
17.8	975
17.86	900
17.92	600
17.98	1425
18.04	750
18.1	900
18.16	750
18.22	1500
18.28	1200
18.34	750
18.4	1050
18.46	825
18.52	1350
18.58	1050
18.64	1425
18.7	1125
18.76	675
18.82	1050
18.88	1425
18.94	1500
19	900
19.06	975
19.12	1125
19.18	1575
19.24	1425
19.3	825
19.36	1125
19.42	1725
19.48	1575
19.54	1050
19.6	1275
19.66	1200
19.72	1275
19.78	1050
19.84	1275
19.9	900
19.96	1200
20.02	1350
20.08	1125
20.14	975
20.2	1575
20.26	1575
20.32	2625
20.38	1275
20.44	1200
20.5	1950
20.56	2100
20.62	1500
20.68	1800
20.74	1725
20.8	1725
20.86	1200
20.92	1050
20.98	1425
21.04	1800
21.1	1800
21.16	1350
21.22	2100
21.28	1425
21.34	2100
21.4	900
21.46	1875
21.52	1575
21.58	675
21.64	750
21.7	1500
21.76	1950
21.82	1575
21.88	1800
21.94	1650
22	1725
22.06	1125
22.12	900
22.18	1575
22.24	1425
22.3	1500
22.36	1050
22.42	2175
22.48	1350
22.54	1050
22.6	975
22.66	1200
22.72	1650
22.78	2025
22.84	1200
22.9	1350
22.96	1875
23.02	2550
23.08	2700
23.14	2625
23.2	3675
23.26	2550
23.32	1500
23.38	1500
23.44	975
23.5	1350
23.56	1125
23.62	1500
23.68	1050
23.74	1200
23.8	1575
23.86	1350
23.92	1275
23.98	1050
24.04	1050
24.1	1275
24.16	1425
24.22	1275
24.28	1350
24.34	1200
24.4	1575
24.46	1200
24.52	825
24.58	675
24.64	1350
24.7	825
24.76	1050
24.82	1125
24.88	750
24.94	825
25	1650
25.06	1125
25.12	1200
25.18	1050
25.24	900
25.3	1050
25.36	1275
25.42	825
25.48	1125
25.54	975
25.6	1125
25.66	825
25.72	750
25.78	1350
25.84	1125
25.9	1125
25.96	1500
26.02	1950
26.08	1275
26.14	1125
26.2	750
26.26	900
26.32	750
26.38	975
26.44	750
26.5	900
26.56	825
26.62	900
26.68	825
26.74	975
26.8	975
26.86	1650
26.92	750
26.98	975
27.04	1425
27.1	900
27.16	750
27.22	900
27.28	750
27.34	825
27.4	825
27.46	975
27.52	525
27.58	750
27.64	900
27.7	1425
27.76	2550
27.82	1050
27.88	1200
27.94	1275
28	600
28.06	1275
28.12	675
28.18	825
28.24	1275
28.3	600
28.36	675
28.42	975
28.48	375
28.54	900
28.6	900
28.66	900
28.72	1125
28.78	975
28.84	900
28.9	675
28.96	1125
29.02	1050
29.08	375
29.14	825
29.2	1050
29.26	750
29.32	750
29.38	825
29.44	900
29.5	600
29.56	825
29.62	600
29.68	975
29.74	450
29.8	750
29.86	525
29.92	825
29.98	900
30.04	900
30.1	600
30.16	675
30.22	900
30.28	675
30.34	600
30.4	525
30.46	825
30.52	300
30.58	300
30.64	675
30.7	675
30.76	525
30.82	750
30.88	300
30.94	900
31	1125
31.06	375
31.12	225
31.18	975
31.24	525
31.3	450
31.36	600
31.42	900
31.48	975
31.54	450
31.6	900
31.66	675
31.72	675
31.78	600
31.84	375
31.9	450
31.96	600
32.02	1125
32.08	675
32.14	600
32.2	600
32.26	600
32.32	375
32.38	75
32.44	450
32.5	600
32.56	300
32.62	600
32.68	525
32.74	225
32.8	450
32.86	600
32.92	600
32.98	900
33.04	975
33.1	525
33.16	975
33.22	825
33.28	600
33.34	300
33.4	525
33.46	525
33.52	600
33.58	225
33.64	450
33.7	375
33.76	525
33.82	450
33.88	825
33.94	825
34	750
34.06	450
34.12	375
34.18	825
34.24	825
34.3	375
34.36	525
34.42	450
34.48	375
34.54	525
34.6	900
34.66	675
34.72	300
34.78	600
34.84	300
34.9	900
34.96	675
35.02	675
35.08	600
35.14	300
35.2	450
35.26	825
35.32	1125
35.38	525
35.44	750
35.5	600
35.56	450
35.62	525
35.68	375
35.74	450
35.8	450
35.86	600
35.92	525
35.98	525
36.04	750
36.1	375
36.16	750
36.22	750
36.28	525
36.34	300
36.4	300
36.46	75
36.52	525
36.58	300
36.64	300
36.7	225
36.76	75
36.82	525
36.88	600
36.94	900
37	1050
37.06	1200
37.12	375
37.18	225
37.24	375
37.3	300
37.36	300
37.42	300
37.48	300
37.54	750
37.6	675
37.66	825
37.72	450
37.78	675
37.84	525
37.9	375
37.96	675
38.02	825
38.08	300
38.14	450
38.2	375
38.26	150
38.32	450
38.38	525
38.44	600
38.5	675
38.56	150
38.62	150
38.68	750
38.74	75
38.8	225
38.86	450
38.92	225
38.98	600
39.04	450
39.1	525
39.16	600
39.22	225
39.28	300
39.34	300
39.4	600
39.46	450
39.52	375
39.58	225
39.64	675
39.7	300
39.76	375
39.82	375
39.88	450
39.94	450
40	150
40.06	525
40.12	375
40.18	675
40.24	375
40.3	150
40.36	300
40.42	225
40.48	300
40.54	525
40.6	300
40.66	300
40.72	450
40.78	375
40.84	300
40.9	225
40.96	225
41.02	300
41.08	825
41.14	525
41.2	375
41.26	225
41.32	300
41.38	300
41.44	600
41.5	75
41.56	450
41.62	525
41.68	300
41.74	525
41.8	450
41.86	75
41.92	450
41.98	450
42.04	375
42.1	225
42.16	525
42.22	375
42.28	300
42.34	450
42.4	900
42.46	525
42.52	375
42.58	825
42.64	375
42.7	375
42.76	600
42.82	750
42.88	600
42.94	600
43	300
43.06	525
43.12	150
43.18	75
43.24	600
43.3	375
43.36	300
43.42	300
43.48	75
43.54	375
43.6	300
43.66	150
43.72	75
43.78	375
43.84	75
43.9	375
43.96	225
44.02	375
44.08	450
44.14	525
44.2	375
44.26	375
44.32	450
44.38	75
44.44	675
44.5	225
44.56	525
44.62	225
44.68	375
44.74	300
44.8	150
44.86	300
44.92	450
44.98	525
45.04	375
45.1	150
45.16	525
45.22	150
45.28	450
45.34	600
45.4	225
45.46	675
45.52	450
45.58	300
45.64	825
45.7	75
45.76	225
45.82	450
45.88	300
45.94	375
46	675
46.06	450
46.12	375
46.18	375
46.24	600
46.3	150
46.36	225
46.42	525
46.48	375
46.54	375
46.6	375
46.66	300
46.72	450
46.78	150
46.84	0
46.9	225
46.96	525
47.02	600
47.08	450
47.14	300
47.2	525
47.26	750
47.32	525
47.38	225
47.44	375
47.5	225
47.56	600
47.62	225
47.68	525
47.74	450
47.8	450
47.86	525
47.92	525
47.98	375
48.04	375
48.1	300
48.16	375
48.22	375
48.28	225
48.34	600
48.4	375
48.46	450
48.52	600
48.58	675
48.64	300
48.7	525
48.76	600
48.82	300
48.88	375
48.94	225
49	300
49.06	225
49.12	450
49.18	225
49.24	825
49.3	300
49.36	525
49.42	225
49.48	225
49.54	600
49.6	300
49.66	450
49.72	600
49.78	750
49.84	225
49.9	375
49.96	300
50.02	825
50.08	375
50.14	375
50.2	300
50.26	525
50.32	675
50.38	375
50.44	225
50.5	375
50.56	375
50.62	225
50.68	600
50.74	150
50.8	150
50.86	375
50.92	150
50.98	600
51.04	375
51.1	450
51.16	300
51.22	450
51.28	525
51.34	375
51.4	225
51.46	225
51.52	225
51.58	300
51.64	450
51.7	525
51.76	525
51.82	150
51.88	150
51.94	525
52	0
52.06	300
52.12	600
52.18	675
52.24	450
52.3	450
52.36	450
52.42	375
52.48	375
52.54	150
52.6	375
52.66	525
52.72	300
52.78	225
52.84	300
52.9	375
52.96	375
53.02	600
53.08	975
53.14	525
53.2	600
53.26	525
53.32	225
53.38	525
53.44	375
53.5	525
53.56	375
53.62	375
53.68	450
53.74	300
53.8	300
53.86	150
53.92	750
53.98	375
54.04	450
54.1	525
54.16	300
54.22	225
54.28	0
54.34	150
54.4	150
54.46	525
54.52	525
54.58	300
54.64	300
54.7	450
54.76	450
54.82	450
54.88	225
54.94	300
55	150
55.06	150
55.12	600
55.18	450
55.24	375
55.3	675
55.36	450
55.42	525
55.48	525
55.54	300
55.6	825
55.66	300
55.72	75
55.78	450
55.84	75
55.9	75
55.96	300
56.02	525
56.08	225
56.14	150
56.2	225
56.26	375
56.32	300
56.38	450
56.44	225
56.5	300
56.56	150
56.62	375
56.68	525
56.74	300
56.8	525
56.86	300
56.92	375
56.98	375
57.04	300
57.1	750
57.16	975
57.22	450
57.28	525
57.34	300
57.4	150
57.46	225
57.52	300
57.58	225
57.64	450
57.7	450
57.76	225
57.82	375
57.88	150
57.94	450
58	375
58.06	300
58.12	225
58.18	675
58.24	375
58.3	375
58.36	450
58.42	300
58.48	300
58.54	375
58.6	225
58.66	300
58.72	525
58.78	375
58.84	450
58.9	75
58.96	450
59.02	525
59.08	300
59.14	300
59.2	450
59.26	375
59.32	525
59.38	300
59.44	300
59.5	150
59.56	300
59.62	375
59.68	450
59.74	75
59.8	375
59.86	225
59.92	450
59.98	600
60.04	300
60.1	450
60.16	300
60.22	375
60.28	150
60.34	150
60.4	300
60.46	0
60.52	375
60.58	225
60.64	375
60.7	300
60.76	375
60.82	300
60.88	300
60.94	450
61	300
61.06	225
61.12	525
61.18	450
61.24	225
61.3	300
61.36	450
61.42	75
61.48	525
61.54	225
61.6	675
61.66	750
61.72	150
61.78	375
61.84	525
61.9	525
61.96	525
62.02	675
62.08	525
62.14	375
62.2	225
62.26	300
62.32	225
62.38	300
62.44	600
62.5	450
62.56	675
62.62	450
62.68	750
62.74	450
62.8	150
62.86	525
62.92	375
62.98	375
63.04	75
63.1	525
63.16	600
63.22	300
63.28	450
63.34	150
63.4	375
63.46	300
63.52	450
63.58	375
63.64	750
63.7	525
63.76	300
63.82	450
63.88	300
63.94	375
64	375
64.06	600
64.12	375
64.18	225
64.24	75
64.3	450
64.36	450
64.42	450
64.48	375
64.54	300
64.6	375
64.66	300
64.72	225
64.78	225
64.84	600
64.9	375
64.96	75
65.02	225
65.08	225
65.14	375
65.2	300
65.26	375
65.32	750
65.38	300
65.44	450
65.5	300
65.56	375
65.62	375
65.68	450
65.74	675
65.8	225
65.86	450
65.92	600
65.98	225
66.04	300
66.1	150
66.16	600
66.22	450
66.28	225
66.34	375
66.4	450
66.46	600
66.52	525
66.58	675
66.64	300
66.7	375
66.76	225
66.82	150
66.88	225
66.94	300
67	375
67.06	225
67.12	150
67.18	300
67.24	150
67.3	300
67.36	300
67.42	600
67.48	150
67.54	375
67.6	225
67.66	825
67.72	75
67.78	675
67.84	525
67.9	675
67.96	525
68.02	375
68.08	300
68.14	300
68.2	150
68.26	225
68.32	300
68.38	225
68.44	150
68.5	525
68.56	225
68.62	225
68.68	375
68.74	225
68.8	300
68.86	225
68.92	300
68.98	375
69.04	375
69.1	300
69.16	825
69.22	300
69.28	450
69.34	525
69.4	0
69.46	450
69.52	75
69.58	225
69.64	150
69.7	525
69.76	300
69.82	300
69.88	750
69.94	600
70	375
70.06	300
70.12	300
70.18	300
70.24	450
70.3	225
70.36	150
70.42	75
70.48	75
70.54	450
70.6	75
70.66	675
70.72	675
70.78	525
70.84	750
70.9	300
70.96	75
71.02	300
71.08	375
71.14	375
71.2	225
71.26	150
71.32	450
71.38	675
71.44	150
71.5	375
71.56	375
71.62	150
71.68	225
71.74	450
71.8	525
71.86	300
71.92	450
71.98	675
72.04	225
72.1	600
72.16	300
72.22	300
72.28	300
72.34	450
72.4	0
72.46	525
72.52	600
72.58	0
72.64	225
72.7	225
72.76	225
72.82	150
72.88	300
72.94	450
73	300
73.06	375
73.12	75
73.18	600
73.24	525
73.3	300
73.36	375
73.42	375
73.48	375
73.54	300
73.6	600
73.66	300
73.72	450
73.78	150
73.84	375
73.9	75
73.96	225
74.02	525
74.08	150
74.14	750
74.2	450
74.26	750
74.32	375
74.38	300
74.44	225
74.5	225
74.56	300
74.62	300
74.68	225
74.74	75
74.8	375
74.86	225
74.92	375
74.98	375
75.04	525
75.1	300
75.16	525
75.22	150
75.28	375
75.34	525
75.4	0
75.46	225
75.52	375
75.58	525
75.64	150
75.7	225
75.76	150
75.82	450
75.88	450
75.94	375
76	375
76.06	375
76.12	375
76.18	300
76.24	375
76.3	225
76.36	150
76.42	150
76.48	450
76.54	450
76.6	375
76.66	75
76.72	225
76.78	450
76.84	525
76.9	900
76.96	300
77.02	225
77.08	450
77.14	225
77.2	150
77.26	375
77.32	450
77.38	300
77.44	300
77.5	225
77.56	675
77.62	225
77.68	375
77.74	450
77.8	225
77.86	450
77.92	75
77.98	375
78.04	300
78.1	375
78.16	225
78.22	150
78.28	75
78.34	300
78.4	450
78.46	600
78.52	600
78.58	225
78.64	675
78.7	450
78.76	150
78.82	375
78.88	300
78.94	75
79	375
79.06	600
79.12	450
79.18	525
79.24	525
79.3	300
79.36	525
79.42	525
79.48	450
79.54	300
79.6	450
79.66	450
79.72	525
79.78	525
79.84	450
79.9	150
79.96	300
80.02	450
80.08	300
80.14	225
80.2	300
80.26	300
80.32	225
80.38	75
80.44	450
80.5	375
80.56	225
80.62	150
80.68	150
80.74	525
80.8	150
80.86	525
80.92	600
80.98	600
81.04	600
81.1	150
81.16	75
81.22	225
81.28	225
81.34	300
81.4	300
81.46	225
81.52	525
81.58	375
81.64	300
81.7	300
81.76	75
81.82	225
81.88	375
81.94	525
82	300
82.06	375
82.12	450
82.18	525
82.24	300
82.3	375
82.36	450
82.42	225
82.48	375
82.54	525
82.6	300
82.66	225
82.72	75
82.78	225
82.84	525
82.9	225
82.96	375
83.02	300
83.08	375
83.14	150
83.2	300
83.26	150
83.32	525
83.38	225
83.44	450
83.5	600
83.56	225
83.62	150
83.68	600
83.74	225
83.8	525
83.86	300
83.92	150
83.98	450
84.04	300
84.1	75
84.16	300
84.22	0
84.28	150
84.34	225
84.4	150
84.46	75
84.52	75
84.58	375
84.64	150
84.7	225
84.76	375
84.82	300
84.88	450
84.94	225
85	225
85.06	150
85.12	150
85.18	75
85.24	375
85.3	150
85.36	75
85.42	450
85.48	225
85.54	300
85.6	225
85.66	150
85.72	450
85.78	75
85.84	225
85.9	450
85.96	75
86.02	225
86.08	225
86.14	75
86.2	75
86.26	300
86.32	150
86.38	450
86.44	225
86.5	225
86.56	450
86.62	300
86.68	150
86.74	225
86.8	225
86.86	75
86.92	300
86.98	150
87.04	300
87.1	150
87.16	75
87.22	525
87.28	300
87.34	225
87.4	0
87.46	225
87.52	225
87.58	150
87.64	525
87.7	150
87.76	0
87.82	600
87.88	0
87.94	375
88	75
88.06	150
88.12	150
88.18	225
88.24	375
88.3	0
88.36	225
88.42	450
88.48	0
88.54	300
88.6	225
88.66	300
88.72	375
88.78	75
88.84	300
88.9	225
88.96	0
89.02	525
89.08	375
89.14	150
89.2	75
89.26	300
89.32	0
89.38	0
89.44	450
89.5	75
89.56	225
89.62	150
89.68	225
89.74	150
89.8	300
89.86	225
89.92	75
89.98	225
90	225