File: 数据/xrd/望军4个xrd10分钟-03.22/fe3o4_Theta_2-Theta.TXT
Sample
Comments
Filename	G:\ceshi\20230223\wangjun410-03.22\fe3o4_Theta_2-Theta.raw

Goniometer	MiniFlex 300/600
Attachment	Air-sensitive Sample Holder
Monochromater	None

X	0
Y	0
Z	0
10	150
10.06	450
10.12	150
10.18	450
10.24	375
10.3	300
10.36	375
10.42	150
10.48	300
10.54	375
10.6	450
10.66	450
10.72	150
10.78	300
10.84	75
10.9	750
10.96	900
11.02	375
11.08	450
11.14	225
11.2	150
11.26	300
11.32	675
11.38	225
11.44	375
11.5	300
11.56	450
11.62	225
11.68	225
11.74	525
11.8	225
11.86	375
11.92	300
11.98	450
12.04	825
12.1	300
12.16	375
12.22	450
12.28	300
12.34	675
12.4	225
12.46	375
12.52	675
12.58	525
12.64	150
12.7	300
12.76	600
12.82	300
12.88	300
12.94	375
13	225
13.06	225
13.12	525
13.18	150
13.24	600
13.3	225
13.36	450
13.42	675
13.48	600
13.54	975
13.6	375
13.66	375
13.72	525
13.78	375
13.84	600
13.9	900
13.96	300
14.02	525
14.08	450
14.14	600
14.2	375
14.26	150
14.32	825
14.38	750
14.44	675
14.5	150
14.56	600
14.62	450
14.68	675
14.74	375
14.8	450
14.86	300
14.92	750
14.98	750
15.04	525
15.1	525
15.16	600
15.22	600
15.28	600
15.34	450
15.4	225
15.46	375
15.52	150
15.58	300
15.64	750
15.7	825
15.76	375
15.82	525
15.88	375
15.94	150
16	300
16.06	525
16.12	450
16.18	375
16.24	825
16.3	450
16.36	375
16.42	600
16.48	375
16.54	1200
16.6	450
16.66	675
16.72	375
16.78	300
16.84	300
16.9	975
16.96	525
17.02	750
17.08	450
17.14	450
17.2	450
17.26	450
17.32	375
17.38	150
17.44	225
17.5	450
17.56	525
17.62	525
17.68	675
17.74	450
17.8	375
17.86	525
17.92	600
17.98	525
18.04	525
18.1	600
18.16	375
18.22	975
18.28	450
18.34	675
18.4	750
18.46	1125
18.52	450
18.58	600
18.64	450
18.7	525
18.76	750
18.82	600
18.88	900
18.94	750
19	675
19.06	600
19.12	750
19.18	750
19.24	675
19.3	525
19.36	750
19.42	825
19.48	1050
19.54	750
19.6	975
19.66	600
19.72	525
19.78	525
19.84	825
19.9	450
19.96	375
20.02	450
20.08	750
20.14	600
20.2	825
20.26	225
20.32	600
20.38	525
20.44	1125
20.5	825
20.56	1050
20.62	750
20.68	600
20.74	975
20.8	600
20.86	900
20.92	675
20.98	900
21.04	675
21.1	825
21.16	825
21.22	675
21.28	600
21.34	975
21.4	600
21.46	825
21.52	750
21.58	1200
21.64	225
21.7	825
21.76	900
21.82	750
21.88	300
21.94	450
22	1200
22.06	1350
22.12	600
22.18	975
22.24	1050
22.3	675
22.36	750
22.42	675
22.48	600
22.54	525
22.6	975
22.66	825
22.72	750
22.78	825
22.84	675
22.9	750
22.96	600
23.02	675
23.08	750
23.14	600
23.2	375
23.26	1050
23.32	675
23.38	525
23.44	675
23.5	525
23.56	900
23.62	900
23.68	675
23.74	975
23.8	1200
23.86	900
23.92	825
23.98	450
24.04	975
24.1	900
24.16	1350
24.22	1050
24.28	825
24.34	750
24.4	825
24.46	975
24.52	750
24.58	825
24.64	825
24.7	600
24.76	900
24.82	975
24.88	525
24.94	675
25	525
25.06	525
25.12	750
25.18	750
25.24	225
25.3	750
25.36	375
25.42	1050
25.48	600
25.54	975
25.6	1350
25.66	300
25.72	525
25.78	300
25.84	450
25.9	525
25.96	450
26.02	675
26.08	675
26.14	525
26.2	1200
26.26	525
26.32	1050
26.38	300
26.44	675
26.5	975
26.56	525
26.62	975
26.68	675
26.74	300
26.8	975
26.86	600
26.92	525
26.98	750
27.04	750
27.1	450
27.16	675
27.22	900
27.28	375
27.34	750
27.4	750
27.46	600
27.52	975
27.58	375
27.64	675
27.7	600
27.76	525
27.82	525
27.88	525
27.94	300
28	525
28.06	1200
28.12	750
28.18	675
28.24	300
28.3	525
28.36	750
28.42	600
28.48	225
28.54	675
28.6	525
28.66	525
28.72	525
28.78	450
28.84	825
28.9	450
28.96	600
29.02	600
29.08	750
29.14	600
29.2	600
29.26	525
29.32	375
29.38	450
29.44	525
29.5	600
29.56	150
29.62	450
29.68	375
29.74	375
29.8	750
29.86	525
29.92	300
29.98	525
30.04	150
30.1	900
30.16	750
30.22	525
30.28	150
30.34	525
30.4	675
30.46	225
30.52	450
30.58	525
30.64	375
30.7	450
30.76	525
30.82	975
30.88	300
30.94	300
31	525
31.06	375
31.12	600
31.18	375
31.24	375
31.3	375
31.36	525
31.42	225
31.48	750
31.54	300
31.6	450
31.66	300
31.72	225
31.78	375
31.84	150
31.9	225
31.96	300
32.02	600
32.08	225
32.14	450
32.2	600
32.26	525
32.32	225
32.38	675
32.44	600
32.5	525
32.56	525
32.62	375
32.68	900
32.74	450
32.8	750
32.86	1200
32.92	1200
32.98	1650
33.04	2100
33.1	2625
33.16	1725
33.22	2100
33.28	1575
33.34	1500
33.4	1275
33.46	750
33.52	750
33.58	675
33.64	600
33.7	600
33.76	450
33.82	600
33.88	600
33.94	525
34	750
34.06	450
34.12	450
34.18	600
34.24	300
34.3	300
34.36	675
34.42	600
34.48	525
34.54	375
34.6	300
34.66	450
34.72	450
34.78	300
34.84	525
34.9	450
34.96	225
35.02	300
35.08	525
35.14	525
35.2	450
35.26	675
35.32	1200
35.38	1125
35.44	1500
35.5	1200
35.56	1500
35.62	1650
35.68	825
35.74	750
35.8	1500
35.86	1275
35.92	825
35.98	750
36.04	750
36.1	600
36.16	225
36.22	900
36.28	675
36.34	675
36.4	375
36.46	375
36.52	525
36.58	1050
36.64	525
36.7	300
36.76	150
36.82	450
36.88	450
36.94	375
37	525
37.06	525
37.12	300
37.18	300
37.24	600
37.3	450
37.36	600
37.42	150
37.48	525
37.54	375
37.6	450
37.66	375
37.72	300
37.78	375
37.84	450
37.9	750
37.96	300
38.02	450
38.08	675
38.14	450
38.2	225
38.26	450
38.32	375
38.38	450
38.44	750
38.5	150
38.56	525
38.62	525
38.68	300
38.74	225
38.8	675
38.86	375
38.92	600
38.98	450
39.04	300
39.1	525
39.16	525
39.22	300
39.28	150
39.34	525
39.4	375
39.46	825
39.52	750
39.58	600
39.64	225
39.7	225
39.76	450
39.82	450
39.88	300
39.94	150
40	75
40.06	225
40.12	300
40.18	225
40.24	450
40.3	600
40.36	450
40.42	600
40.48	450
40.54	600
40.6	450
40.66	750
40.72	675
40.78	600
40.84	675
40.9	375
40.96	675
41.02	600
41.08	525
41.14	450
41.2	525
41.26	450
41.32	300
41.38	150
41.44	450
41.5	75
41.56	375
41.62	525
41.68	450
41.74	525
41.8	300
41.86	375
41.92	300
41.98	675
42.04	300
42.1	300
42.16	150
42.22	375
42.28	975
42.34	375
42.4	750
42.46	300
42.52	300
42.58	525
42.64	300
42.7	150
42.76	375
42.82	150
42.88	450
42.94	300
43	450
43.06	150
43.12	300
43.18	300
43.24	300
43.3	225
43.36	300
43.42	450
43.48	525
43.54	525
43.6	225
43.66	225
43.72	0
43.78	450
43.84	450
43.9	675
43.96	750
44.02	150
44.08	300
44.14	300
44.2	300
44.26	525
44.32	600
44.38	450
44.44	300
44.5	150
44.56	675
44.62	600
44.68	600
44.74	225
44.8	150
44.86	75
44.92	75
44.98	375
45.04	450
45.1	375
45.16	450
45.22	375
45.28	375
45.34	600
45.4	75
45.46	375
45.52	300
45.58	375
45.64	150
45.7	375
45.76	300
45.82	375
45.88	300
45.94	450
46	150
46.06	225
46.12	150
46.18	450
46.24	600
46.3	225
46.36	450
46.42	225
46.48	450
46.54	225
46.6	75
46.66	225
46.72	300
46.78	525
46.84	300
46.9	375
46.96	600
47.02	450
47.08	300
47.14	150
47.2	450
47.26	600
47.32	300
47.38	225
47.44	375
47.5	600
47.56	300
47.62	300
47.68	600
47.74	375
47.8	450
47.86	675
47.92	300
47.98	300
48.04	525
48.1	225
48.16	375
48.22	450
48.28	375
48.34	375
48.4	375
48.46	300
48.52	225
48.58	225
48.64	450
48.7	375
48.76	375
48.82	375
48.88	675
48.94	450
49	225
49.06	600
49.12	600
49.18	525
49.24	1050
49.3	825
49.36	1425
49.42	1200
49.48	825
49.54	1275
49.6	825
49.66	900
49.72	750
49.78	750
49.84	675
49.9	525
49.96	675
50.02	450
50.08	300
50.14	600
50.2	675
50.26	300
50.32	450
50.38	375
50.44	150
50.5	225
50.56	150
50.62	600
50.68	225
50.74	750
50.8	375
50.86	225
50.92	450
50.98	675
51.04	450
51.1	600
51.16	150
51.22	600
51.28	375
51.34	450
51.4	225
51.46	600
51.52	525
51.58	375
51.64	450
51.7	225
51.76	375
51.82	225
51.88	825
51.94	525
52	375
52.06	75
52.12	600
52.18	450
52.24	225
52.3	450
52.36	525
52.42	450
52.48	525
52.54	600
52.6	150
52.66	525
52.72	300
52.78	375
52.84	525
52.9	150
52.96	525
53.02	0
53.08	150
53.14	300
53.2	825
53.26	675
53.32	375
53.38	675
53.44	450
53.5	525
53.56	450
53.62	525
53.68	675
53.74	750
53.8	525
53.86	900
53.92	1125
53.98	1650
54.04	1650
54.1	1125
54.16	975
54.22	1125
54.28	675
54.34	975
54.4	450
54.46	675
54.52	600
54.58	450
54.64	525
54.7	300
54.76	300
54.82	150
54.88	600
54.94	525
55	150
55.06	450
55.12	150
55.18	675
55.24	675
55.3	675
55.36	225
55.42	600
55.48	300
55.54	225
55.6	375
55.66	450
55.72	375
55.78	750
55.84	375
55.9	525
55.96	300
56.02	300
56.08	300
56.14	525
56.2	300
56.26	600
56.32	675
56.38	150
56.44	225
56.5	375
56.56	675
56.62	150
56.68	450
56.74	450
56.8	375
56.86	300
56.92	225
56.98	375
57.04	525
57.1	450
57.16	675
57.22	750
57.28	450
57.34	600
57.4	600
57.46	600
57.52	150
57.58	300
57.64	750
57.7	450
57.76	300
57.82	450
57.88	375
57.94	150
58	375
58.06	450
58.12	450
58.18	450
58.24	675
58.3	150
58.36	150
58.42	525
58.48	600
58.54	750
58.6	300
58.66	300
58.72	375
58.78	300
58.84	450
58.9	300
58.96	300
59.02	525
59.08	450
59.14	150
59.2	225
59.26	375
59.32	75
59.38	450
59.44	300
59.5	225
59.56	375
59.62	375
59.68	750
59.74	375
59.8	375
59.86	675
59.92	525
59.98	300
60.04	600
60.1	450
60.16	225
60.22	450
60.28	300
60.34	300
60.4	525
60.46	75
60.52	150
60.58	600
60.64	375
60.7	225
60.76	600
60.82	300
60.88	750
60.94	150
61	375
61.06	675
61.12	450
61.18	300
61.24	300
61.3	375
61.36	450
61.42	300
61.48	450
61.54	225
61.6	450
61.66	300
61.72	525
61.78	450
61.84	450
61.9	150
61.96	450
62.02	300
62.08	600
62.14	675
62.2	450
62.26	825
62.32	750
62.38	825
62.44	900
62.5	600
62.56	450
62.62	1050
62.68	450
62.74	750
62.8	825
62.86	600
62.92	300
62.98	300
63.04	375
63.1	300
63.16	300
63.22	225
63.28	525
63.34	225
63.4	450
63.46	750
63.52	375
63.58	450
63.64	225
63.7	600
63.76	450
63.82	675
63.88	1125
63.94	900
64	900
64.06	825
64.12	975
64.18	900
64.24	750
64.3	975
64.36	600
64.42	375
64.48	825
64.54	225
64.6	150
64.66	300
64.72	300
64.78	450
64.84	450
64.9	525
64.96	525
65.02	600
65.08	525
65.14	375
65.2	225
65.26	300
65.32	450
65.38	225
65.44	525
65.5	225
65.56	75
65.62	75
65.68	300
65.74	300
65.8	375
65.86	450
65.92	300
65.98	675
66.04	225
66.1	225
66.16	375
66.22	375
66.28	450
66.34	525
66.4	375
66.46	450
66.52	450
66.58	300
66.64	300
66.7	375
66.76	450
66.82	0
66.88	300
66.94	600
67	525
67.06	450
67.12	300
67.18	300
67.24	300
67.3	300
67.36	300
67.42	600
67.48	300
67.54	225
67.6	450
67.66	450
67.72	300
67.78	150
67.84	675
67.9	375
67.96	375
68.02	450
68.08	225
68.14	225
68.2	225
68.26	300
68.32	375
68.38	525
68.44	225
68.5	300
68.56	375
68.62	450
68.68	225
68.74	300
68.8	525
68.86	600
68.92	150
68.98	75
69.04	600
69.1	525
69.16	225
69.22	375
69.28	750
69.34	225
69.4	0
69.46	675
69.52	375
69.58	375
69.64	300
69.7	375
69.76	750
69.82	600
69.88	525
69.94	450
70	150
70.06	375
70.12	750
70.18	300
70.24	675
70.3	300
70.36	300
70.42	300
70.48	300
70.54	150
70.6	750
70.66	375
70.72	300
70.78	450
70.84	300
70.9	450
70.96	525
71.02	150
71.08	600
71.14	600
71.2	450
71.26	450
71.32	375
71.38	600
71.44	375
71.5	150
71.56	600
71.62	525
71.68	450
71.74	300
71.8	375
71.86	450
71.92	750
71.98	450
72.04	375
72.1	375
72.16	675
72.22	750
72.28	450
72.34	450
72.4	600
72.46	375
72.52	450
72.58	525
72.64	375
72.7	300
72.76	750
72.82	375
72.88	300
72.94	450
73	75
73.06	525
73.12	450
73.18	300
73.24	150
73.3	150
73.36	225
73.42	150
73.48	225
73.54	450
73.6	300
73.66	75
73.72	375
73.78	525
73.84	375
73.9	300
73.96	225
74.02	600
74.08	450
74.14	150
74.2	450
74.26	525
74.32	375
74.38	225
74.44	450
74.5	300
74.56	300
74.62	225
74.68	375
74.74	300
74.8	375
74.86	450
74.92	75
74.98	225
75.04	375
75.1	525
75.16	525
75.22	375
75.28	450
75.34	300
75.4	225
75.46	675
75.52	300
75.58	450
75.64	300
75.7	225
75.76	375
75.82	225
75.88	375
75.94	225
76	600
76.06	675
76.12	225
76.18	225
76.24	525
76.3	75
76.36	375
76.42	300
76.48	225
76.54	450
76.6	300
76.66	375
76.72	75
76.78	300
76.84	150
76.9	225
76.96	300
77.02	525
77.08	225
77.14	525
77.2	150
77.26	225
77.32	525
77.38	600
77.44	525
77.5	375
77.56	375
77.62	525
77.68	675
77.74	525
77.8	150
77.86	525
77.92	375
77.98	300
78.04	150
78.1	375
78.16	225
78.22	525
78.28	300
78.34	150
78.4	300
78.46	450
78.52	150
78.58	450
78.64	675
78.7	600
78.76	300
78.82	750
78.88	75
78.94	225
79	375
79.06	375
79.12	300
79.18	375
79.24	375
79.3	525
79.36	675
79.42	600
79.48	300
79.54	375
79.6	375
79.66	600
79.72	75
79.78	600
79.84	525
79.9	450
79.96	525
80.02	825
80.08	450
80.14	225
80.2	300
80.26	225
80.32	600
80.38	300
80.44	75
80.5	450
80.56	450
80.62	525
80.68	525
80.74	150
80.8	375
80.86	525
80.92	300
80.98	450
81.04	675
81.1	375
81.16	750
81.22	450
81.28	525
81.34	375
81.4	600
81.46	150
81.52	225
81.58	375
81.64	300
81.7	150
81.76	225
81.82	525
81.88	150
81.94	300
82	225
82.06	150
82.12	300
82.18	375
82.24	375
82.3	525
82.36	525
82.42	450
82.48	300
82.54	225
82.6	300
82.66	450
82.72	450
82.78	225
82.84	225
82.9	675
82.96	225
83.02	825
83.08	300
83.14	525
83.2	150
83.26	300
83.32	300
83.38	675
83.44	300
83.5	225
83.56	300
83.62	375
83.68	300
83.74	600
83.8	225
83.86	150
83.92	225
83.98	300
84.04	150
84.1	300
84.16	375
84.22	300
84.28	300
84.34	450
84.4	450
84.46	450
84.52	375
84.58	375
84.64	525
84.7	225
84.76	300
84.82	300
84.88	675
84.94	750
85	75
85.06	225
85.12	675
85.18	750
85.24	450
85.3	525
85.36	225
85.42	750
85.48	600
85.54	525
85.6	300
85.66	525
85.72	150
85.78	375
85.84	450
85.9	450
85.96	300
86.02	525
86.08	675
86.14	375
86.2	450
86.26	450
86.32	150
86.38	225
86.44	525
86.5	75
86.56	300
86.62	225
86.68	300
86.74	375
86.8	150
86.86	225
86.92	450
86.98	600
87.04	300
87.1	225
87.16	225
87.22	300
87.28	525
87.34	375
87.4	525
87.46	225
87.52	525
87.58	600
87.64	450
87.7	300
87.76	450
87.82	450
87.88	525
87.94	150
88	375
88.06	375
88.12	150
88.18	525
88.24	375
88.3	600
88.36	825
88.42	600
88.48	225
88.54	525
88.6	300
88.66	525
88.72	600
88.78	150
88.84	375
88.9	525
88.96	150
89.02	525
89.08	300
89.14	600
89.2	600
89.26	375
89.32	450
89.38	375
89.44	675
89.5	375
89.56	450
89.62	750
89.68	675
89.74	150
89.8	375
89.86	300
89.92	375
89.98	300
90	225