File: 数据/xrd/望军4个xrd10分钟-03.22/zhuyetan-fe3o4_Theta_2-Theta.TXT
Sample
Comments
Filename	G:\ceshi\20230223\wangjun410-03.22\zhuyetan-fe3o4_Theta_2-Theta.raw

Goniometer	MiniFlex 300/600
Attachment	Air-sensitive Sample Holder
Monochromater	None

X	0
Y	0
Z	0
10	450
10.06	525
10.12	975
10.18	300
10.24	450
10.3	300
10.36	300
10.42	600
10.48	600
10.54	450
10.6	450
10.66	675
10.72	525
10.78	375
10.84	975
10.9	75
10.96	450
11.02	975
11.08	600
11.14	525
11.2	525
11.26	300
11.32	450
11.38	750
11.44	450
11.5	450
11.56	525
11.62	225
11.68	150
11.74	375
11.8	600
11.86	825
11.92	375
11.98	225
12.04	225
12.1	300
12.16	300
12.22	375
12.28	750
12.34	375
12.4	525
12.46	375
12.52	300
12.58	375
12.64	525
12.7	375
12.76	300
12.82	300
12.88	450
12.94	750
13	675
13.06	825
13.12	75
13.18	600
13.24	450
13.3	600
13.36	450
13.42	975
13.48	750
13.54	450
13.6	750
13.66	450
13.72	975
13.78	525
13.84	300
13.9	675
13.96	675
14.02	300
14.08	450
14.14	150
14.2	750
14.26	150
14.32	525
14.38	750
14.44	375
14.5	600
14.56	525
14.62	300
14.68	300
14.74	525
14.8	825
14.86	450
14.92	375
14.98	450
15.04	375
15.1	675
15.16	450
15.22	675
15.28	900
15.34	375
15.4	525
15.46	675
15.52	300
15.58	75
15.64	600
15.7	600
15.76	750
15.82	750
15.88	825
15.94	750
16	675
16.06	525
16.12	450
16.18	600
16.24	975
16.3	750
16.36	600
16.42	900
16.48	750
16.54	525
16.6	450
16.66	900
16.72	675
16.78	525
16.84	525
16.9	600
16.96	450
17.02	900
17.08	450
17.14	825
17.2	900
17.26	225
17.32	975
17.38	675
17.44	375
17.5	750
17.56	600
17.62	300
17.68	825
17.74	375
17.8	450
17.86	825
17.92	900
17.98	1425
18.04	825
18.1	1200
18.16	750
18.22	900
18.28	1575
18.34	1425
18.4	1050
18.46	1350
18.52	825
18.58	450
18.64	750
18.7	525
18.76	1125
18.82	825
18.88	525
18.94	450
19	825
19.06	975
19.12	975
19.18	975
19.24	825
19.3	600
19.36	375
19.42	1275
19.48	900
19.54	1200
19.6	750
19.66	675
19.72	300
19.78	825
19.84	825
19.9	900
19.96	1275
20.02	1050
20.08	825
20.14	675
20.2	675
20.26	900
20.32	900
20.38	975
20.44	825
20.5	900
20.56	825
20.62	975
20.68	1275
20.74	975
20.8	1425
20.86	1050
20.92	525
20.98	750
21.04	600
21.1	750
21.16	1125
21.22	1275
21.28	750
21.34	450
21.4	900
21.46	825
21.52	1050
21.58	1425
21.64	675
21.7	825
21.76	750
21.82	675
21.88	600
21.94	825
22	900
22.06	975
22.12	900
22.18	375
22.24	1050
22.3	675
22.36	450
22.42	675
22.48	750
22.54	825
22.6	1200
22.66	600
22.72	975
22.78	600
22.84	525
22.9	1275
22.96	525
23.02	825
23.08	900
23.14	975
23.2	675
23.26	900
23.32	750
23.38	825
23.44	750
23.5	750
23.56	375
23.62	450
23.68	600
23.74	750
23.8	525
23.86	525
23.92	675
23.98	825
24.04	300
24.1	750
24.16	750
24.22	1050
24.28	450
24.34	600
24.4	450
24.46	375
24.52	675
24.58	600
24.64	825
24.7	675
24.76	1125
24.82	750
24.88	750
24.94	375
25	300
25.06	450
25.12	375
25.18	450
25.24	750
25.3	525
25.36	675
25.42	225
25.48	1050
25.54	450
25.6	750
25.66	525
25.72	225
25.78	750
25.84	750
25.9	525
25.96	450
26.02	300
26.08	825
26.14	900
26.2	1125
26.26	525
26.32	900
26.38	825
26.44	450
26.5	675
26.56	750
26.62	300
26.68	450
26.74	300
26.8	750
26.86	825
26.92	450
26.98	375
27.04	525
27.1	525
27.16	525
27.22	450
27.28	675
27.34	300
27.4	600
27.46	300
27.52	300
27.58	300
27.64	675
27.7	300
27.76	450
27.82	750
27.88	300
27.94	525
28	450
28.06	525
28.12	600
28.18	525
28.24	600
28.3	375
28.36	450
28.42	225
28.48	450
28.54	675
28.6	675
28.66	825
28.72	600
28.78	450
28.84	600
28.9	675
28.96	300
29.02	525
29.08	675
29.14	1050
29.2	600
29.26	750
29.32	675
29.38	300
29.44	525
29.5	825
29.56	525
29.62	525
29.68	825
29.74	900
29.8	825
29.86	750
29.92	1200
29.98	1200
30.04	2025
30.1	2400
30.16	1275
30.22	825
30.28	450
30.34	1125
30.4	300
30.46	525
30.52	675
30.58	375
30.64	675
30.7	675
30.76	600
30.82	975
30.88	450
30.94	750
31	525
31.06	375
31.12	225
31.18	450
31.24	225
31.3	300
31.36	300
31.42	525
31.48	750
31.54	300
31.6	375
31.66	675
31.72	300
31.78	825
31.84	600
31.9	900
31.96	825
32.02	375
32.08	450
32.14	300
32.2	600
32.26	225
32.32	525
32.38	375
32.44	450
32.5	225
32.56	450
32.62	75
32.68	525
32.74	300
32.8	150
32.86	375
32.92	825
32.98	150
33.04	525
33.1	225
33.16	525
33.22	450
33.28	750
33.34	525
33.4	525
33.46	750
33.52	600
33.58	600
33.64	600
33.7	375
33.76	375
33.82	675
33.88	675
33.94	225
34	300
34.06	600
34.12	450
34.18	525
34.24	225
34.3	525
34.36	375
34.42	750
34.48	450
34.54	675
34.6	525
34.66	600
34.72	525
34.78	525
34.84	600
34.9	525
34.96	600
35.02	600
35.08	450
35.14	675
35.2	675
35.26	1125
35.32	2475
35.38	3300
35.44	4050
35.5	3525
35.56	2700
35.62	450
35.68	750
35.74	1125
35.8	1050
35.86	675
35.92	450
35.98	450
36.04	750
36.1	750
36.16	525
36.22	150
36.28	225
36.34	300
36.4	0
36.46	525
36.52	525
36.58	600
36.64	750
36.7	225
36.76	150
36.82	375
36.88	975
36.94	975
37	675
37.06	375
37.12	750
37.18	525
37.24	675
37.3	375
37.36	600
37.42	750
37.48	750
37.54	450
37.6	150
37.66	525
37.72	450
37.78	750
37.84	675
37.9	75
37.96	375
38.02	300
38.08	375
38.14	225
38.2	450
38.26	450
38.32	75
38.38	450
38.44	225
38.5	525
38.56	300
38.62	450
38.68	150
38.74	450
38.8	675
38.86	450
38.92	750
38.98	450
39.04	825
39.1	525
39.16	300
39.22	450
39.28	300
39.34	300
39.4	150
39.46	300
39.52	750
39.58	450
39.64	225
39.7	375
39.76	450
39.82	450
39.88	225
39.94	825
40	225
40.06	450
40.12	300
40.18	525
40.24	375
40.3	450
40.36	525
40.42	525
40.48	450
40.54	300
40.6	300
40.66	150
40.72	375
40.78	375
40.84	300
40.9	450
40.96	375
41.02	675
41.08	375
41.14	375
41.2	450
41.26	375
41.32	750
41.38	450
41.44	375
41.5	450
41.56	300
41.62	375
41.68	750
41.74	525
41.8	600
41.86	375
41.92	450
41.98	150
42.04	75
42.1	675
42.16	300
42.22	150
42.28	525
42.34	300
42.4	450
42.46	225
42.52	375
42.58	300
42.64	450
42.7	750
42.76	675
42.82	675
42.88	825
42.94	1125
43	1350
43.06	1275
43.12	1200
43.18	825
43.24	525
43.3	525
43.36	300
43.42	525
43.48	600
43.54	525
43.6	525
43.66	450
43.72	300
43.78	150
43.84	450
43.9	300
43.96	300
44.02	375
44.08	150
44.14	300
44.2	225
44.26	300
44.32	675
44.38	450
44.44	150
44.5	375
44.56	300
44.62	300
44.68	525
44.74	600
44.8	75
44.86	375
44.92	600
44.98	375
45.04	525
45.1	300
45.16	825
45.22	450
45.28	675
45.34	450
45.4	450
45.46	375
45.52	450
45.58	75
45.64	375
45.7	225
45.76	150
45.82	225
45.88	525
45.94	375
46	300
46.06	450
46.12	675
46.18	450
46.24	300
46.3	150
46.36	300
46.42	450
46.48	300
46.54	675
46.6	150
46.66	600
46.72	600
46.78	150
46.84	225
46.9	375
46.96	300
47.02	225
47.08	600
47.14	225
47.2	225
47.26	300
47.32	375
47.38	375
47.44	450
47.5	375
47.56	450
47.62	225
47.68	300
47.74	300
47.8	525
47.86	225
47.92	375
47.98	600
48.04	375
48.1	225
48.16	375
48.22	675
48.28	450
48.34	450
48.4	450
48.46	525
48.52	450
48.58	225
48.64	600
48.7	450
48.76	525
48.82	225
48.88	600
48.94	675
49	150
49.06	150
49.12	300
49.18	675
49.24	525
49.3	525
49.36	450
49.42	225
49.48	300
49.54	525
49.6	150
49.66	450
49.72	300
49.78	600
49.84	450
49.9	150
49.96	750
50.02	675
50.08	300
50.14	300
50.2	300
50.26	75
50.32	600
50.38	150
50.44	225
50.5	225
50.56	225
50.62	600
50.68	375
50.74	225
50.8	225
50.86	300
50.92	225
50.98	375
51.04	75
51.1	225
51.16	300
51.22	75
51.28	525
51.34	375
51.4	375
51.46	450
51.52	225
51.58	375
51.64	375
51.7	75
51.76	450
51.82	300
51.88	300
51.94	375
52	675
52.06	300
52.12	375
52.18	750
52.24	525
52.3	525
52.36	375
52.42	375
52.48	525
52.54	600
52.6	300
52.66	450
52.72	225
52.78	525
52.84	375
52.9	375
52.96	600
53.02	600
53.08	600
53.14	675
53.2	600
53.26	300
53.32	600
53.38	450
53.44	600
53.5	675
53.56	900
53.62	825
53.68	300
53.74	675
53.8	450
53.86	600
53.92	225
53.98	225
54.04	675
54.1	300
54.16	525
54.22	300
54.28	300
54.34	300
54.4	225
54.46	150
54.52	675
54.58	675
54.64	600
54.7	375
54.76	525
54.82	600
54.88	375
54.94	750
55	450
55.06	600
55.12	525
55.18	450
55.24	150
55.3	450
55.36	675
55.42	525
55.48	225
55.54	525
55.6	450
55.66	225
55.72	225
55.78	225
55.84	525
55.9	225
55.96	450
56.02	375
56.08	375
56.14	600
56.2	300
56.26	900
56.32	225
56.38	300
56.44	225
56.5	600
56.56	375
56.62	600
56.68	825
56.74	900
56.8	600
56.86	1950
56.92	975
56.98	1275
57.04	1200
57.1	900
57.16	525
57.22	975
57.28	375
57.34	300
57.4	75
57.46	300
57.52	150
57.58	75
57.64	300
57.7	300
57.76	525
57.82	375
57.88	150
57.94	675
58	375
58.06	375
58.12	300
58.18	600
58.24	150
58.3	825
58.36	525
58.42	375
58.48	300
58.54	225
58.6	375
58.66	225
58.72	450
58.78	375
58.84	525
58.9	975
58.96	450
59.02	300
59.08	675
59.14	150
59.2	375
59.26	300
59.32	450
59.38	450
59.44	225
59.5	375
59.56	600
59.62	525
59.68	375
59.74	375
59.8	300
59.86	750
59.92	300
59.98	225
60.04	150
60.1	450
60.16	375
60.22	375
60.28	375
60.34	375
60.4	600
60.46	150
60.52	375
60.58	300
60.64	525
60.7	750
60.76	450
60.82	600
60.88	300
60.94	450
61	225
61.06	450
61.12	525
61.18	150
61.24	150
61.3	375
61.36	375
61.42	300
61.48	300
61.54	225
61.6	375
61.66	375
61.72	825
61.78	450
61.84	75
61.9	375
61.96	300
62.02	450
62.08	675
62.14	675
62.2	525
62.26	1050
62.32	450
62.38	1425
62.44	1350
62.5	1575
62.56	1575
62.62	1350
62.68	1350
62.74	900
62.8	900
62.86	900
62.92	600
62.98	675
63.04	150
63.1	450
63.16	450
63.22	525
63.28	750
63.34	375
63.4	375
63.46	450
63.52	300
63.58	525
63.64	450
63.7	525
63.76	300
63.82	525
63.88	300
63.94	525
64	300
64.06	450
64.12	450
64.18	450
64.24	225
64.3	600
64.36	450
64.42	150
64.48	150
64.54	375
64.6	825
64.66	375
64.72	375
64.78	300
64.84	225
64.9	375
64.96	750
65.02	525
65.08	1050
65.14	300
65.2	300
65.26	375
65.32	450
65.38	375
65.44	225
65.5	450
65.56	525
65.62	225
65.68	675
65.74	300
65.8	525
65.86	375
65.92	450
65.98	450
66.04	450
66.1	450
66.16	300
66.22	300
66.28	450
66.34	750
66.4	450
66.46	375
66.52	225
66.58	525
66.64	300
66.7	300
66.76	300
66.82	300
66.88	300
66.94	150
67	300
67.06	600
67.12	225
67.18	525
67.24	450
67.3	675
67.36	300
67.42	450
67.48	600
67.54	375
67.6	600
67.66	825
67.72	375
67.78	450
67.84	450
67.9	450
67.96	225
68.02	375
68.08	375
68.14	375
68.2	450
68.26	300
68.32	225
68.38	225
68.44	525
68.5	225
68.56	300
68.62	450
68.68	300
68.74	525
68.8	450
68.86	750
68.92	450
68.98	600
69.04	525
69.1	600
69.16	600
69.22	300
69.28	600
69.34	525
69.4	450
69.46	225
69.52	225
69.58	300
69.64	75
69.7	300
69.76	750
69.82	525
69.88	225
69.94	150
70	300
70.06	225
70.12	150
70.18	450
70.24	300
70.3	600
70.36	225
70.42	225
70.48	375
70.54	900
70.6	600
70.66	300
70.72	675
70.78	300
70.84	600
70.9	525
70.96	300
71.02	450
71.08	675
71.14	225
71.2	375
71.26	750
71.32	150
71.38	225
71.44	375
71.5	525
71.56	375
71.62	450
71.68	600
71.74	525
71.8	375
71.86	300
71.92	300
71.98	300
72.04	450
72.1	450
72.16	375
72.22	300
72.28	450
72.34	300
72.4	675
72.46	375
72.52	75
72.58	75
72.64	450
72.7	300
72.76	300
72.82	300
72.88	300
72.94	300
73	300
73.06	525
73.12	525
73.18	300
73.24	150
73.3	300
73.36	225
73.42	150
73.48	225
73.54	450
73.6	450
73.66	600
73.72	600
73.78	525
73.84	375
73.9	600
73.96	600
74.02	450
74.08	375
74.14	525
74.2	525
74.26	525
74.32	75
74.38	225
74.44	375
74.5	375
74.56	450
74.62	525
74.68	375
74.74	525
74.8	450
74.86	900
74.92	150
74.98	300
75.04	225
75.1	525
75.16	525
75.22	600
75.28	525
75.34	0
75.4	525
75.46	75
75.52	300
75.58	375
75.64	675
75.7	450
75.76	375
75.82	300
75.88	225
75.94	675
76	450
76.06	300
76.12	300
76.18	450
76.24	450
76.3	450
76.36	375
76.42	525
76.48	300
76.54	900
76.6	525
76.66	300
76.72	900
76.78	450
76.84	300
76.9	450
76.96	225
77.02	225
77.08	300
77.14	225
77.2	225
77.26	150
77.32	300
77.38	600
77.44	300
77.5	300
77.56	600
77.62	225
77.68	750
77.74	375
77.8	375
77.86	525
77.92	525
77.98	525
78.04	450
78.1	600
78.16	450
78.22	300
78.28	450
78.34	450
78.4	675
78.46	75
78.52	375
78.58	225
78.64	375
78.7	600
78.76	375
78.82	300
78.88	825
78.94	525
79	225
79.06	450
79.12	225
79.18	375
79.24	450
79.3	825
79.36	450
79.42	225
79.48	225
79.54	75
79.6	375
79.66	375
79.72	225
79.78	600
79.84	300
79.9	600
79.96	375
80.02	675
80.08	525
80.14	300
80.2	600
80.26	300
80.32	525
80.38	300
80.44	225
80.5	75
80.56	150
80.62	225
80.68	450
80.74	225
80.8	750
80.86	150
80.92	525
80.98	450
81.04	0
81.1	300
81.16	300
81.22	525
81.28	150
81.34	600
81.4	450
81.46	375
81.52	600
81.58	0
81.64	225
81.7	675
81.76	150
81.82	375
81.88	450
81.94	150
82	375
82.06	225
82.12	300
82.18	975
82.24	450
82.3	525
82.36	675
82.42	525
82.48	375
82.54	450
82.6	150
82.66	375
82.72	450
82.78	300
82.84	300
82.9	300
82.96	450
83.02	600
83.08	375
83.14	375
83.2	525
83.26	375
83.32	225
83.38	150
83.44	450
83.5	75
83.56	450
83.62	150
83.68	225
83.74	300
83.8	150
83.86	450
83.92	675
83.98	450
84.04	675
84.1	525
84.16	150
84.22	225
84.28	300
84.34	450
84.4	225
84.46	375
84.52	150
84.58	600
84.64	375
84.7	75
84.76	450
84.82	0
84.88	375
84.94	375
85	525
85.06	150
85.12	450
85.18	825
85.24	525
85.3	300
85.36	225
85.42	225
85.48	525
85.54	150
85.6	375
85.66	225
85.72	150
85.78	300
85.84	225
85.9	300
85.96	450
86.02	300
86.08	300
86.14	75
86.2	375
86.26	300
86.32	150
86.38	225
86.44	150
86.5	525
86.56	75
86.62	600
86.68	375
86.74	600
86.8	225
86.86	375
86.92	300
86.98	375
87.04	150
87.1	75
87.16	375
87.22	375
87.28	150
87.34	150
87.4	225
87.46	375
87.52	300
87.58	150
87.64	150
87.7	150
87.76	75
87.82	75
87.88	375
87.94	300
88	150
88.06	150
88.12	225
88.18	75
88.24	300
88.3	300
88.36	450
88.42	75
88.48	450
88.54	150
88.6	225
88.66	375
88.72	225
88.78	375
88.84	375
88.9	75
88.96	300
89.02	150
89.08	450
89.14	375
89.2	300
89.26	300
89.32	300
89.38	300
89.44	300
89.5	525
89.56	300
89.62	525
89.68	900
89.74	300
89.8	375
89.86	375
89.92	750
89.98	300
90	225