File: 数据/xrd/20230405/cnts.txt
10.0000   111
10.0998   111
10.1998   99
10.2998   113
10.3998   92
10.4998   119
10.5998   102
10.6998   113
10.7998   125
10.8998   80
10.9998   107
11.0998   94
11.1998   88
11.2998   94
11.3998   87
11.4998   100
11.5998   92
11.6998   103
11.7998   98
11.8998   80
11.9998   78
12.0998   92
12.1998   109
12.2998   105
12.3998   104
12.4998   90
12.5998   99
12.6998   85
12.7998   88
12.8998   98
12.9998   72
13.0998   85
13.1998   55
13.2998   103
13.3998   73
13.4998   100
13.5998   92
13.6998   91
13.7998   81
13.8998   93
13.9998   79
14.0998   97
14.1998   77
14.2998   84
14.3998   75
14.4998   78
14.5998   83
14.6998   62
14.7998   69
14.8998   80
14.9998   77
15.0998   76
15.1998   86
15.2998   69
15.3998   88
15.4998   91
15.5998   89
15.6998   86
15.7998   94
15.8998   70
15.9998   76
16.0998   92
16.1998   81
16.2998   77
16.3998   89
16.4998   82
16.5998   86
16.6998   79
16.7998   95
16.8998   72
16.9998   84
17.0998   91
17.1998   85
17.2998   90
17.3998   74
17.4998   94
17.5998   97
17.6998   94
17.7998   86
17.8998   92
17.9998   87
18.0998   83
18.1998   90
18.2998   74
18.3998   100
18.4998   96
18.5998   98
18.6998   100
18.7998   89
18.8998   96
18.9998   91
19.0998   107
19.1998   120
19.2998   95
19.3998   101
19.4998   105
19.5998   102
19.6998   101
19.7998   104
19.8998   109
19.9998   113
20.0996   118
20.1996   111
20.2996   98
20.3996   115
20.4996   104
20.5996   124
20.6996   112
20.7996   121
20.8996   123
20.9996   124
21.0996   109
21.1996   143
21.2996   137
21.3996   143
21.4996   150
21.5996   126
21.6996   125
21.7996   138
21.8996   159
21.9996   171
22.0996   144
22.1996   165
22.2996   135
22.3996   149
22.4996   176
22.5996   178
22.6996   213
22.7996   176
22.8996   184
22.9996   178
23.0996   198
23.1996   229
23.2996   206
23.3996   215
23.4996   227
23.5996   205
23.6996   238
23.7996   249
23.8996   252
23.9996   260
24.0996   314
24.1996   286
24.2996   313
24.3996   322
24.4996   327
24.5996   370
24.6996   415
24.7996   400
24.8996   436
24.9996   483
25.0996   465
25.1996   469
25.2996   476
25.3996   498
25.4996   492
25.5996   554
25.6996   540
25.7996   536
25.8996   532
25.9996   523
26.0996   478
26.1996   511
26.2996   516
26.3996   455
26.4996   437
26.5996   432
26.6996   348
26.7996   321
26.8996   349
26.9996   305
27.0996   274
27.1996   281
27.2996   239
27.3996   226
27.4996   217
27.5996   195
27.6996   169
27.7996   179
27.8996   165
27.9996   155
28.0996   138
28.1996   137
28.2996   146
28.3996   125
28.4996   152
28.5996   122
28.6996   105
28.7996   134
28.8996   113
28.9996   121
29.0996   111
29.1996   97
29.2996   93
29.3996   91
29.4996   97
29.5996   119
29.6996   100
29.7996   83
29.8996   92
29.9996   112
30.0996   99
30.1996   103
30.2996   77
30.3995   97
30.4994   97
30.5994   102
30.6994   103
30.7994   84
30.8994   89
30.9994   87
31.0994   81
31.1994   97
31.2994   106
31.3994   107
31.4994   92
31.5994   85
31.6994   75
31.7994   76
31.8994   80
31.9994   77
32.0994   82
32.1994   78
32.2994   74
32.3994   84
32.4994   80
32.5994   90
32.6994   74
32.7994   72
32.8994   67
32.9994   80
33.0994   72
33.1994   76
33.2994   86
33.3994   76
33.4994   76
33.5994   63
33.6994   69
33.7994   62
33.8994   75
33.9994   91
34.0994   62
34.1994   60
34.2994   73
34.3994   65
34.4994   58
34.5994   59
34.6994   63
34.7994   67
34.8994   47
34.9994   64
35.0994   53
35.1994   54
35.2994   68
35.3994   64
35.4994   79
35.5994   67
35.6994   53
35.7994   65
35.8994   64
35.9994   62
36.0994   72
36.1994   50
36.2994   61
36.3994   62
36.4994   60
36.5994   75
36.6994   54
36.7994   60
36.8994   54
36.9994   59
37.0994   46
37.1994   56
37.2994   56
37.3994   58
37.4994   50
37.5994   54
37.6994   46
37.7994   55
37.8994   47
37.9994   55
38.0994   50
38.1994   43
38.2994   56
38.3994   54
38.4994   53
38.5994   59
38.6994   58
38.7994   50
38.8994   49
38.9994   59
39.0994   56
39.1994   57
39.2994   50
39.3994   50
39.4994   60
39.5994   65
39.6994   56
39.7994   61
39.8994   52
39.9994   49
40.0994   39
40.1994   48
40.2994   54
40.3993   41
40.4992   54
40.5992   43
40.6992   51
40.7992   51
40.8992   58
40.9992   67
41.0992   63
41.1992   71
41.2992   67
41.3992   61
41.4992   62
41.5992   61
41.6992   63
41.7992   75
41.8992   73
41.9992   72
42.0992   94
42.1992   81
42.2992   87
42.3992   80
42.4992   97
42.5992   96
42.6992   119
42.7992   94
42.8992   113
42.9992   97
43.0992   103
43.1992   107
43.2992   104
43.3992   86
43.4992   91
43.5992   121
43.6992   99
43.7992   97
43.8992   81
43.9992   100
44.0992   92
44.1992   76
44.2992   87
44.3992   78
44.4992   68
44.5992   73
44.6992   81
44.7992   84
44.8992   90
44.9992   81
45.0992   76
45.1992   79
45.2992   69
45.3992   76
45.4992   88
45.5992   72
45.6992   69
45.7992   63
45.8992   54
45.9992   71
46.0992   62
46.1992   76
46.2992   73
46.3992   66
46.4992   64
46.5992   71
46.6992   57
46.7992   62
46.8992   61
46.9992   62
47.0992   58
47.1992   66
47.2992   58
47.3992   59
47.4992   53
47.5992   40
47.6992   61
47.7992   65
47.8992   49
47.9992   53
48.0992   59
48.1992   49
48.2992   56
48.3992   61
48.4992   52
48.5992   51
48.6992   49
48.7992   45
48.8992   64
48.9992   53
49.0992   43
49.1992   58
49.2992   53
49.3992   67
49.4992   42
49.5992   58
49.6992   57
49.7992   60
49.8992   66
49.9992   53
50.0992   51
50.1992   60
50.2992   44
50.3991   55
50.4990   60
50.5990   66
50.6990   53
50.7990   49
50.8990   52
50.9990   53
51.0990   49
51.1990   51
51.2990   43
51.3990   62
51.4990   52
51.5990   33
51.6990   42
51.7990   62
51.8990   48
51.9990   58
52.0990   65
52.1990   53
52.2990   62
52.3990   55
52.4990   57
52.5990   66
52.6990   60
52.7990   64
52.8990   64
52.9990   52
53.0990   62
53.1990   78
53.2990   56
53.3990   50
53.4990   60
53.5990   72
53.6990   51
53.7990   62
53.8990   55
53.9990   71
54.0990   54
54.1990   57
54.2990   40
54.3990   59
54.4990   50
54.5990   50
54.6990   59
54.7990   52
54.8990   49
54.9990   39
55.0990   59
55.1990   43
55.2990   42
55.3990   36
55.4990   58
55.5990   60
55.6990   43
55.7990   51
55.8990   45
55.9990   48
56.0990   43
56.1990   50
56.2990   57
56.3990   45
56.4990   52
56.5990   53
56.6990   36
56.7990   65
56.8990   40
56.9990   48
57.0990   45
57.1990   47
57.2990   48
57.3990   52
57.4990   47
57.5990   52
57.6990   51
57.7990   33
57.8990   43
57.9990   43
58.0990   41
58.1990   42
58.2990   44
58.3990   48
58.4990   38
58.5990   58
58.6990   41
58.7990   40
58.8990   38
58.9990   34
59.0990   59
59.1990   45
59.2990   35
59.3990   55
59.4990   39
59.5990   51
59.6990   50
59.7990   39
59.8990   34
59.9990   48
60.0990   42
60.1990   44
60.2990   53
60.3990   43
60.4988   33
60.5988   47
60.6988   39
60.7988   42
60.8988   45
60.9988   53
61.0988   39
61.1988   34
61.2988   33
61.3988   48
61.4988   45
61.5988   40
61.6988   58
61.7988   52
61.8988   42
61.9988   51
62.0988   42
62.1988   39
62.2988   49
62.3988   48
62.4988   42
62.5988   47
62.6988   44
62.7988   47
62.8988   43
62.9988   42
63.0988   51
63.1988   55
63.2988   43
63.3988   41
63.4988   42
63.5988   51
63.6988   54
63.7988   41
63.8988   42
63.9988   44
64.0988   38
64.1988   39
64.2988   43
64.3988   48
64.4988   51
64.5988   43
64.6988   30
64.7988   35
64.8988   45
64.9988   45
65.0988   34
65.1988   57
65.2988   41
65.3988   40
65.4988   48
65.5988   40
65.6988   52
65.7988   48
65.8988   39
65.9988   51
66.0988   53
66.1988   41
66.2988   35
66.3988   45
66.4988   38
66.5988   48
66.6988   43
66.7988   47
66.8988   44
66.9988   35
67.0988   40
67.1988   43
67.2988   46
67.3988   33
67.4988   46
67.5988   32
67.6988   41
67.7988   39
67.8988   27
67.9988   39
68.0988   36
68.1988   38
68.2988   44
68.3988   28
68.4988   29
68.5988   32
68.6988   39
68.7988   30
68.8988   38
68.9988   38
69.0988   31
69.1988   34
69.2988   41
69.3988   34
69.4988   38
69.5988   35
69.6988   45
69.7988   28
69.8988   39
69.9988   29
70.0988   30
70.1988   42
70.2988   33
70.3988   36
70.4987   31
70.5986   47
70.6986   29
70.7986   38
70.8986   37
70.9986   39
71.0986   41
71.1986   42
71.2986   39
71.3986   33
71.4986   34
71.5986   28
71.6986   27
71.7986   33
71.8986   45
71.9986   37
72.0986   34
72.1986   36
72.2986   32
72.3986   42
72.4986   30
72.5986   38
72.6986   28
72.7986   31
72.8986   35
72.9986   38
73.0986   30
73.1986   26
73.2986   32
73.3986   28
73.4986   35
73.5986   45
73.6986   35
73.7986   33
73.8986   26
73.9986   32
74.0986   36
74.1986   34
74.2986   43
74.3986   34
74.4986   36
74.5986   40
74.6986   35
74.7986   25
74.8986   37
74.9986   33
75.0986   30
75.1986   40
75.2986   39
75.3986   31
75.4986   35
75.5986   28
75.6986   33
75.7986   29
75.8986   35
75.9986   36
76.0986   33
76.1986   43
76.2986   37
76.3986   25
76.4986   45
76.5986   30
76.6986   30
76.7986   37
76.8986   31
76.9986   45
77.0986   27
77.1986   29
77.2986   31
77.3986   43
77.4986   45
77.5986   35
77.6986   39
77.7986   34
77.8986   27
77.9986   40
78.0986   32
78.1986   51
78.2986   50
78.3986   36
78.4986   46
78.5986   40
78.6986   48
78.7986   43
78.8986   43
78.9986   34
79.0986   41
79.1986   36
79.2986   46
79.3986   39
79.4986   38
79.5986   36
79.6986   30
79.7986   29
79.8986   30
79.9986   38
80.0986   33
80.1986   39
80.2986   32
80.3986   33
80.4985   29
80.5984   48
80.6984   27
80.7984   44
80.8984   35
80.9984   35
81.0984   32
81.1984   34
81.2984   32
81.3984   45
81.4984   40
81.5984   49
81.6984   35
81.7984   40
81.8984   31
81.9984   35
82.0984   28
82.1984   25
82.2984   28
82.3984   39
82.4984   32
82.5984   31
82.6984   27
82.7984   41
82.8984   45
82.9984   42
83.0984   30
83.1984   28
83.2984   38
83.3984   38
83.4984   31
83.5984   32
83.6984   27
83.7984   32
83.8984   32
83.9984   28
84.0984   24
84.1984   27
84.2984   31
84.3984   30
84.4984   29
84.5984   33
84.6984   33
84.7984   36
84.8984   29
84.9984   24
85.0984   35
85.1984   21
85.2984   30
85.3984   31
85.4984   15
85.5984   32
85.6984   30
85.7984   35
85.8984   32
85.9984   25
86.0984   28
86.1984   34
86.2984   28
86.3984   33
86.4984   21
86.5984   26
86.6984   32
86.7984   31
86.8984   34
86.9984   32
87.0984   27
87.1984   33
87.2984   31
87.3984   26
87.4984   34
87.5984   23
87.6984   34
87.7984   19
87.8984   32
87.9984   23
88.0984   21
88.1984   22
88.2984   26
88.3984   26
88.4984   21
88.5984   33
88.6984   37
88.7984   19
88.8984   25
88.9984   25
89.0984   29
89.1984   20
89.2984   36
89.3984   17
89.4984   34
89.5984   20
89.6984   19
89.7984   35
89.8984   17
89.9984   22