File: 数据/xrd/20230405/cnts-fe2o3.txt
10.0000   43
10.0998   45
10.1998   54
10.2998   46
10.3998   48
10.4998   47
10.5998   52
10.6998   38
10.7998   50
10.8998   40
10.9998   49
11.0998   46
11.1998   34
11.2998   28
11.3998   40
11.4998   35
11.5998   31
11.6998   53
11.7998   32
11.8998   42
11.9998   37
12.0998   52
12.1998   32
12.2998   28
12.3998   30
12.4998   34
12.5998   35
12.6998   34
12.7998   36
12.8998   43
12.9998   19
13.0998   33
13.1998   42
13.2998   32
13.3998   32
13.4998   31
13.5998   23
13.6998   40
13.7998   35
13.8998   28
13.9998   34
14.0998   31
14.1998   47
14.2998   31
14.3998   30
14.4998   33
14.5998   27
14.6998   21
14.7998   20
14.8998   31
14.9998   29
15.0998   32
15.1998   30
15.2998   33
15.3998   27
15.4998   34
15.5998   45
15.6998   24
15.7998   24
15.8998   31
15.9998   32
16.0998   28
16.1998   30
16.2998   27
16.3998   32
16.4998   28
16.5998   27
16.6998   24
16.7998   25
16.8998   31
16.9998   34
17.0998   23
17.1998   34
17.2998   26
17.3998   19
17.4998   29
17.5998   29
17.6998   25
17.7998   30
17.8998   25
17.9998   22
18.0998   31
18.1998   33
18.2998   22
18.3998   35
18.4998   39
18.5998   41
18.6998   28
18.7998   31
18.8998   26
18.9998   30
19.0998   26
19.1998   19
19.2998   25
19.3998   28
19.4998   27
19.5998   23
19.6998   26
19.7998   25
19.8998   24
19.9996   23
20.0996   15
20.1996   21
20.2996   28
20.3996   31
20.4996   19
20.5996   26
20.6996   22
20.7996   32
20.8996   22
20.9996   28
21.0996   22
21.1996   31
21.2996   24
21.3996   32
21.4996   21
21.5996   26
21.6996   40
21.7996   29
21.8996   27
21.9996   38
22.0996   36
22.1996   27
22.2996   25
22.3996   29
22.4996   30
22.5996   31
22.6996   26
22.7996   26
22.8996   42
22.9996   31
23.0996   46
23.1996   38
23.2996   41
23.3996   35
23.4996   34
23.5996   42
23.6996   46
23.7996   49
23.8996   53
23.9996   48
24.0996   55
24.1996   60
24.2996   72
24.3996   82
24.4996   80
24.5996   60
24.6996   84
24.7996   80
24.8996   93
24.9996   84
25.0996   90
25.1996   106
25.2996   119
25.3996   90
25.4996   109
25.5996   127
25.6996   119
25.7996   118
25.8996   134
25.9996   132
26.0996   133
26.1996   138
26.2996   125
26.3996   114
26.4996   117
26.5996   113
26.6996   110
26.7996   110
26.8996   106
26.9996   86
27.0996   81
27.1996   74
27.2996   85
27.3996   76
27.4996   91
27.5996   90
27.6996   84
27.7996   80
27.8996   92
27.9996   80
28.0996   82
28.1996   69
28.2996   65
28.3996   67
28.4996   58
28.5996   65
28.6996   65
28.7996   61
28.8996   63
28.9996   44
29.0996   55
29.1996   51
29.2996   52
29.3996   44
29.4996   42
29.5996   48
29.6996   34
29.7996   44
29.8996   36
29.9994   36
30.0994   26
30.1994   35
30.2994   40
30.3994   39
30.4994   46
30.5994   43
30.6994   60
30.7994   36
30.8994   48
30.9994   52
31.0994   34
31.1994   39
31.2994   41
31.3994   54
31.4994   66
31.5994   42
31.6994   39
31.7994   45
31.8994   45
31.9994   35
32.0994   43
32.1994   49
32.2994   55
32.3994   52
32.4994   48
32.5994   44
32.6994   49
32.7994   44
32.8994   69
32.9994   65
33.0994   85
33.1994   81
33.2994   86
33.3994   104
33.4994   81
33.5994   73
33.6994   58
33.7994   39
33.8994   45
33.9994   52
34.0994   52
34.1994   48
34.2994   48
34.3994   42
34.4994   43
34.5994   40
34.6994   38
34.7994   45
34.8994   41
34.9994   59
35.0994   54
35.1994   50
35.2994   64
35.3994   97
35.4994   91
35.5994   128
35.6994   127
35.7994   146
35.8994   145
35.9994   144
36.0994   134
36.1994   94
36.2994   98
36.3994   93
36.4994   86
36.5994   75
36.6994   62
36.7994   60
36.8994   63
36.9994   73
37.0994   40
37.1994   48
37.2994   44
37.3994   40
37.4994   32
37.5994   33
37.6994   33
37.7994   36
37.8994   25
37.9994   23
38.0994   37
38.1994   30
38.2994   28
38.3994   21
38.4994   17
38.5994   25
38.6994   17
38.7994   26
38.8994   29
38.9994   31
39.0994   35
39.1994   30
39.2994   23
39.3994   35
39.4994   37
39.5994   53
39.6994   39
39.7994   37
39.8994   36
39.9992   28
40.0992   35
40.1992   15
40.2992   34
40.3992   29
40.4992   34
40.5992   30
40.6992   23
40.7992   38
40.8992   43
40.9992   43
41.0992   51
41.1992   48
41.2992   43
41.3992   40
41.4992   37
41.5992   33
41.6992   25
41.7992   28
41.8992   25
41.9992   25
42.0992   26
42.1992   34
42.2992   36
42.3992   35
42.4992   44
42.5992   42
42.6992   30
42.7992   43
42.8992   44
42.9992   40
43.0992   44
43.1992   34
43.2992   30
43.3992   36
43.4992   34
43.5992   29
43.6992   28
43.7992   43
43.8992   34
43.9992   31
44.0992   35
44.1992   31
44.2992   25
44.3992   30
44.4992   26
44.5992   30
44.6992   25
44.7992   19
44.8992   21
44.9992   13
45.0992   23
45.1992   27
45.2992   25
45.3992   11
45.4992   29
45.5992   26
45.6992   24
45.7992   27
45.8992   26
45.9992   34
46.0992   23
46.1992   29
46.2992   23
46.3992   30
46.4992   31
46.5992   25
46.6992   27
46.7992   41
46.8992   35
46.9992   23
47.0992   35
47.1992   26
47.2992   21
47.3992   25
47.4992   28
47.5992   21
47.6992   30
47.7992   19
47.8992   25
47.9992   32
48.0992   26
48.1992   27
48.2992   26
48.3992   32
48.4992   28
48.5992   26
48.6992   25
48.7992   28
48.8992   23
48.9992   30
49.0992   31
49.1992   32
49.2992   42
49.3992   41
49.4992   31
49.5992   38
49.6992   48
49.7992   35
49.8991   34
49.9990   29
50.0990   30
50.1990   25
50.2990   25
50.3990   26
50.4990   28
50.5990   18
50.6990   20
50.7990   17
50.8990   23
50.9990   29
51.0990   26
51.1990   24
51.2990   14
51.3990   21
51.4990   27
51.5990   20
51.6990   20
51.7990   14
51.8990   16
51.9990   18
52.0990   22
52.1990   21
52.2990   26
52.3990   19
52.4990   32
52.5990   23
52.6990   22
52.7990   28
52.8990   31
52.9990   25
53.0990   19
53.1990   30
53.2990   36
53.3990   23
53.4990   26
53.5990   16
53.6990   21
53.7990   32
53.8990   28
53.9990   40
54.0990   42
54.1990   43
54.2990   40
54.3990   47
54.4990   38
54.5990   31
54.6990   37
54.7990   25
54.8990   22
54.9990   30
55.0990   35
55.1990   20
55.2990   22
55.3990   25
55.4990   33
55.5990   22
55.6990   31
55.7990   27
55.8990   36
55.9990   39
56.0990   40
56.1990   44
56.2990   52
56.3990   44
56.4990   59
56.5990   40
56.6990   43
56.7990   58
56.8990   37
56.9990   32
57.0990   42
57.1990   29
57.2990   26
57.3990   29
57.4990   30
57.5990   30
57.6990   26
57.7990   38
57.8990   32
57.9990   27
58.0990   29
58.1990   21
58.2990   30
58.3990   19
58.4990   18
58.5990   25
58.6990   23
58.7990   21
58.8990   20
58.9990   20
59.0990   23
59.1990   31
59.2990   29
59.3990   22
59.4990   24
59.5990   18
59.6990   19
59.7990   20
59.8989   32
59.9988   36
60.0988   24
60.1988   21
60.2988   30
60.3988   37
60.4988   19
60.5988   25
60.6988   21
60.7988   24
60.8988   19
60.9988   30
61.0988   18
61.1988   28
61.2988   26
61.3988   30
61.4988   21
61.5988   18
61.6988   19
61.7988   22
61.8988   20
61.9988   19
62.0988   33
62.1988   45
62.2988   24
62.3988   27
62.4988   35
62.5988   41
62.6988   53
62.7988   34
62.8988   44
62.9988   40
63.0988   42
63.1988   35
63.2988   41
63.3988   29
63.4988   23
63.5988   22
63.6988   26
63.7988   24
63.8988   40
63.9988   33
64.0988   42
64.1988   35
64.2988   43
64.3988   42
64.4988   35
64.5988   33
64.6988   35
64.7988   31
64.8988   35
64.9988   22
65.0988   31
65.1988   32
65.2988   26
65.3988   25
65.4988   27
65.5988   24
65.6988   31
65.7988   18
65.8988   22
65.9988   25
66.0988   20
66.1988   20
66.2988   21
66.3988   19
66.4988   7
66.5988   14
66.6988   17
66.7988   16
66.8988   16
66.9988   19
67.0988   18
67.1988   21
67.2988   19
67.3988   20
67.4988   16
67.5988   12
67.6988   14
67.7988   23
67.8988   17
67.9988   25
68.0988   20
68.1988   26
68.2988   19
68.3988   10
68.4988   14
68.5988   8
68.6988   15
68.7988   16
68.8988   13
68.9988   14
69.0988   11
69.1988   12
69.2988   14
69.3988   23
69.4988   11
69.5988   16
69.6988   23
69.7988   20
69.8988   15
69.9988   15
70.0988   13
70.1987   16
70.2986   18
70.3986   18
70.4986   15
70.5986   9
70.6986   15
70.7986   9
70.8986   18
70.9986   13
71.0986   23
71.1986   16
71.2986   13
71.3986   21
71.4986   9
71.5986   17
71.6986   18
71.7986   6
71.8986   16
71.9986   10
72.0986   19
72.1986   16
72.2986   12
72.3986   16
72.4986   16
72.5986   10
72.6986   20
72.7986   15
72.8986   16
72.9986   12
73.0986   14
73.1986   20
73.2986   16
73.3986   7
73.4986   10
73.5986   11
73.6986   13
73.7986   16
73.8986   10
73.9986   12
74.0986   11
74.1986   7
74.2986   17
74.3986   12
74.4986   13
74.5986   17
74.6986   14
74.7986   20
74.8986   21
74.9986   12
75.0986   18
75.1986   6
75.2986   19
75.3986   11
75.4986   12
75.5986   11
75.6986   19
75.7986   14
75.8986   17
75.9986   8
76.0986   15
76.1986   15
76.2986   14
76.3986   8
76.4986   8
76.5986   11
76.6986   11
76.7986   13
76.8986   10
76.9986   15
77.0986   16
77.1986   14
77.2986   13
77.3986   11
77.4986   19
77.5986   5
77.6986   19
77.7986   16
77.8986   12
77.9986   16
78.0986   14
78.1986   17
78.2986   17
78.3986   12
78.4986   15
78.5986   20
78.6986   17
78.7986   21
78.8986   16
78.9986   17
79.0986   7
79.1986   12
79.2986   14
79.3986   16
79.4986   9
79.5986   11
79.6986   16
79.7986   14
79.8986   16
79.9986   18
80.0986   12
80.1985   15
80.2984   16
80.3984   16
80.4984   24
80.5984   22
80.6984   23
80.7984   12
80.8984   14
80.9984   15
81.0984   17
81.1984   24
81.2984   14
81.3984   13
81.4984   23
81.5984   14
81.6984   6
81.7984   15
81.8984   13
81.9984   14
82.0984   7
82.1984   11
82.2984   11
82.3984   12
82.4984   11
82.5984   10
82.6984   10
82.7984   10
82.8984   14
82.9984   15
83.0984   24
83.1984   12
83.2984   18
83.3984   13
83.4984   9
83.5984   19
83.6984   9
83.7984   14
83.8984   15
83.9984   7
84.0984   12
84.1984   8
84.2984   11
84.3984   15
84.4984   12
84.5984   12
84.6984   17
84.7984   16
84.8984   16
84.9984   10
85.0984   13
85.1984   13
85.2984   25
85.3984   14
85.4984   10
85.5984   18
85.6984   11
85.7984   12
85.8984   15
85.9984   11
86.0984   13
86.1984   14
86.2984   10
86.3984   16
86.4984   9
86.5984   13
86.6984   12
86.7984   12
86.8984   9
86.9984   19
87.0984   19
87.1984   14
87.2984   10
87.3984   16
87.4984   18
87.5984   19
87.6984   15
87.7984   18
87.8984   12
87.9984   13
88.0984   14
88.1984   8
88.2984   21
88.3984   10
88.4984   9
88.5984   12
88.6984   14
88.7984   13
88.8984   17
88.9984   16
89.0984   14
89.1984   9
89.2984   20
89.3984   10
89.4984   11
89.5984   16
89.6984   11
89.7984   9
89.8984   14
89.9984   12