File: 数据/xrd/20230405/中间体.txt
10.0000   55
10.0998   50
10.1998   48
10.2998   29
10.3998   42
10.4998   59
10.5998   35
10.6998   40
10.7998   36
10.8998   40
10.9998   45
11.0998   44
11.1998   48
11.2998   41
11.3998   38
11.4998   39
11.5998   52
11.6998   87
11.7998   123
11.8998   203
11.9998   399
12.0998   598
12.1998   253
12.2998   85
12.3998   53
12.4998   37
12.5998   32
12.6998   33
12.7998   44
12.8998   23
12.9998   41
13.0998   30
13.1998   42
13.2998   28
13.3998   32
13.4998   38
13.5998   35
13.6998   35
13.7998   32
13.8998   31
13.9998   28
14.0998   24
14.1998   32
14.2998   33
14.3998   37
14.4998   27
14.5998   32
14.6998   31
14.7998   34
14.8998   38
14.9998   27
15.0998   24
15.1998   27
15.2998   24
15.3998   17
15.4998   24
15.5998   31
15.6998   21
15.7998   20
15.8998   28
15.9998   28
16.0998   16
16.1998   28
16.2998   28
16.3998   35
16.4998   30
16.5998   34
16.6998   42
16.7998   42
16.8998   138
16.9998   287
17.0998   414
17.1998   137
17.2998   49
17.3998   27
17.4998   35
17.5998   28
17.6998   27
17.7998   31
17.8998   18
17.9998   32
18.0998   19
18.1998   28
18.2998   21
18.3998   20
18.4998   19
18.5998   23
18.6998   24
18.7998   11
18.8998   24
18.9998   20
19.0998   24
19.1998   24
19.2998   19
19.3998   15
19.4998   23
19.5998   18
19.6998   16
19.7998   26
19.8998   18
19.9996   16
20.0996   23
20.1996   10
20.2996   20
20.3996   13
20.4996   8
20.5996   26
20.6996   18
20.7996   17
20.8996   14
20.9996   14
21.0996   19
21.1996   15
21.2996   22
21.3996   11
21.4996   18
21.5996   14
21.6996   14
21.7996   19
21.8996   14
21.9996   19
22.0996   22
22.1996   20
22.2996   20
22.3996   13
22.4996   17
22.5996   14
22.6996   14
22.7996   14
22.8996   15
22.9996   18
23.0996   11
23.1996   15
23.2996   12
23.3996   13
23.4996   19
23.5996   17
23.6996   13
23.7996   19
23.8996   21
23.9996   25
24.0996   29
24.1996   65
24.2996   45
24.3996   15
24.4996   21
24.5996   19
24.6996   12
24.7996   15
24.8996   20
24.9996   18
25.0996   18
25.1996   16
25.2996   16
25.3996   13
25.4996   9
25.5996   12
25.6996   18
25.7996   13
25.8996   16
25.9996   17
26.0996   24
26.1996   16
26.2996   30
26.3996   17
26.4996   35
26.5996   37
26.6996   37
26.7996   53
26.8996   120
26.9996   396
27.0996   761
27.1996   372
27.2996   105
27.3996   45
27.4996   32
27.5996   20
27.6996   32
27.7996   27
27.8996   19
27.9996   13
28.0996   15
28.1996   12
28.2996   16
28.3996   17
28.4996   11
28.5996   13
28.6996   10
28.7996   11
28.8996   15
28.9996   15
29.0996   11
29.1996   18
29.2996   13
29.3996   14
29.4996   13
29.5996   15
29.6996   12
29.7996   16
29.8996   15
29.9994   11
30.0994   9
30.1994   21
30.2994   13
30.3994   13
30.4994   4
30.5994   10
30.6994   17
30.7994   35
30.8994   29
30.9994   22
31.0994   7
31.1994   16
31.2994   21
31.3994   17
31.4994   6
31.5994   13
31.6994   12
31.7994   14
31.8994   15
31.9994   8
32.0994   13
32.1994   12
32.2994   17
32.3994   12
32.4994   6
32.5994   14
32.6994   11
32.7994   12
32.8994   13
32.9994   22
33.0994   20
33.1994   77
33.2994   97
33.3994   25
33.4994   14
33.5994   14
33.6994   14
33.7994   16
33.8994   24
33.9994   29
34.0994   26
34.1994   44
34.2994   77
34.3994   261
34.4994   243
34.5994   97
34.6994   40
34.7994   34
34.8994   26
34.9994   38
35.0994   43
35.1994   59
35.2994   214
35.3994   654
35.4994   591
35.5994   183
35.6994   76
35.7994   60
35.8994   32
35.9994   20
36.0994   17
36.1994   21
36.2994   19
36.3994   21
36.4994   24
36.5994   35
36.6994   43
36.7994   21
36.8994   18
36.9994   13
37.0994   18
37.1994   13
37.2994   9
37.3994   7
37.4994   13
37.5994   11
37.6994   15
37.7994   10
37.8994   19
37.9994   17
38.0994   7
38.1994   12
38.2994   19
38.3994   25
38.4994   26
38.5994   63
38.6994   84
38.7994   22
38.8994   25
38.9994   17
39.0994   21
39.1994   23
39.2994   17
39.3994   57
39.4994   184
39.5994   176
39.6994   70
39.7994   22
39.8994   12
39.9993   7
40.0992   19
40.1992   12
40.2992   15
40.3992   12
40.4992   8
40.5992   8
40.6992   9
40.7992   12
40.8992   29
40.9992   33
41.0992   15
41.1992   11
41.2992   15
41.3992   6
41.4992   8
41.5992   12
41.6992   16
41.7992   7
41.8992   9
41.9992   8
42.0992   5
42.1992   16
42.2992   3
42.3992   12
42.4992   11
42.5992   6
42.6992   12
42.7992   7
42.8992   13
42.9992   15
43.0992   23
43.1992   27
43.2992   100
43.3992   67
43.4992   36
43.5992   14
43.6992   9
43.7992   17
43.8992   15
43.9992   6
44.0992   16
44.1992   38
44.2992   69
44.3992   43
44.4992   18
44.5992   15
44.6992   11
44.7992   13
44.8992   15
44.9992   10
45.0992   12
45.1992   13
45.2992   11
45.3992   15
45.4992   8
45.5992   13
45.6992   6
45.7992   7
45.8992   12
45.9992   11
46.0992   13
46.1992   12
46.2992   13
46.3992   16
46.4992   18
46.5992   34
46.6992   55
46.7992   217
46.8992   226
46.9992   135
47.0992   39
47.1992   20
47.2992   17
47.3992   11
47.4992   16
47.5992   10
47.6992   10
47.7992   11
47.8992   7
47.9992   7
48.0992   7
48.1992   11
48.2992   4
48.3992   7
48.4992   11
48.5992   10
48.6992   14
48.7992   15
48.8992   7
48.9992   10
49.0992   5
49.1992   10
49.2992   21
49.3992   33
49.4992   42
49.5992   43
49.6992   26
49.7992   9
49.8992   13
49.9990   7
50.0990   11
50.1990   9
50.2990   8
50.3990   9
50.4990   10
50.5990   11
50.6990   6
50.7990   9
50.8990   9
50.9990   7
51.0990   11
51.1990   15
51.2990   9
51.3990   5
51.4990   11
51.5990   10
51.6990   13
51.7990   13
51.8990   5
51.9990   7
52.0990   20
52.1990   20
52.2990   10
52.3990   21
52.4990   51
52.5990   116
52.6990   137
52.7990   94
52.8990   31
52.9990   18
53.0990   19
53.1990   21
53.2990   48
53.3990   73
53.4990   46
53.5990   22
53.6990   12
53.7990   8
53.8990   11
53.9990   10
54.0990   35
54.1990   28
54.2990   24
54.3990   8
54.4990   10
54.5990   7
54.6990   14
54.7990   11
54.8990   3
54.9990   12
55.0990   12
55.1990   12
55.2990   11
55.3990   14
55.4990   13
55.5990   13
55.6990   14
55.7990   21
55.8990   20
55.9990   25
56.0990   28
56.1990   38
56.2990   113
56.3990   405
56.4990   244
56.5990   170
56.6990   63
56.7990   24
56.8990   22
56.9990   21
57.0990   10
57.1990   14
57.2990   8
57.3990   17
57.4990   10
57.5990   14
57.6990   12
57.7990   18
57.8990   7
57.9990   12
58.0990   5
58.1990   6
58.2990   4
58.3990   6
58.4990   6
58.5990   5
58.6990   10
58.7990   9
58.8990   2
58.9990   6
59.0990   11
59.1990   6
59.2990   8
59.3990   7
59.4990   7
59.5990   8
59.6990   10
59.7990   8
59.8989   10
59.9988   15
60.0988   6
60.1988   11
60.2988   6
60.3988   9
60.4988   11
60.5988   8
60.6988   9
60.7988   13
60.8988   9
60.9988   6
61.0988   17
61.1988   33
61.2988   96
61.3988   75
61.4988   61
61.5988   19
61.6988   17
61.7988   7
61.8988   15
61.9988   12
62.0988   23
62.1988   52
62.2988   32
62.3988   28
62.4988   36
62.5988   16
62.6988   38
62.7988   27
62.8988   35
62.9988   64
63.0988   48
63.1988   19
63.2988   18
63.3988   15
63.4988   13
63.5988   18
63.6988   13
63.7988   9
63.8988   10
63.9988   14
64.0988   39
64.1988   34
64.2988   44
64.3988   40
64.4988   19
64.5988   21
64.6988   17
64.7988   27
64.8988   67
64.9988   158
65.0988   101
65.1988   100
65.2988   25
65.3988   19
65.4988   12
65.5988   10
65.6988   7
65.7988   10
65.8988   6
65.9988   7
66.0988   10
66.1988   3
66.2988   5
66.3988   6
66.4988   6
66.5988   5
66.6988   12
66.7988   9
66.8988   8
66.9988   9
67.0988   7
67.1988   9
67.2988   12
67.3988   10
67.4988   6
67.5988   13
67.6988   9
67.7988   14
67.8988   10
67.9988   16
68.0988   27
68.1988   82
68.2988   51
68.3988   79
68.4988   71
68.5988   44
68.6988   27
68.7988   18
68.8988   15
68.9988   5
69.0988   7
69.1988   3
69.2988   7
69.3988   11
69.4988   9
69.5988   9
69.6988   4
69.7988   5
69.8987   3
69.9986   6
70.0986   7
70.1986   2
70.2986   12
70.3986   8
70.4986   6
70.5986   8
70.6986   9
70.7986   4
70.8986   11
70.9986   5
71.0986   8
71.1986   7
71.2986   2
71.3986   9
71.4986   4
71.5986   10
71.6986   5
71.7986   9
71.8986   13
71.9986   20
72.0986   29
72.1986   55
72.2986   38
72.3986   24
72.4986   12
72.5986   8
72.6986   5
72.7986   8
72.8986   11
72.9986   10
73.0986   7
73.1986   12
73.2986   7
73.3986   13
73.4986   26
73.5986   15
73.6986   15
73.7986   9
73.8986   8
73.9986   4
74.0986   5
74.1986   7
74.2986   2
74.3986   4
74.4986   8
74.5986   9
74.6986   12
74.7986   10
74.8986   8
74.9986   17
75.0986   13
75.1986   4
75.2986   6
75.3986   6
75.4986   10
75.5986   5
75.6986   7
75.7986   6
75.8986   6
75.9986   5
76.0986   2
76.1986   6
76.2986   5
76.3986   8
76.4986   5
76.5986   5
76.6986   9
76.7986   7
76.8986   9
76.9986   6
77.0986   5
77.1986   4
77.2986   8
77.3986   6
77.4986   7
77.5986   18
77.6986   6
77.7986   10
77.8986   9
77.9986   11
78.0986   32
78.1986   42
78.2986   23
78.3986   24
78.4986   17
78.5986   14
78.6986   19
78.7986   24
78.8986   18
78.9986   12
79.0986   10
79.1986   6
79.2986   5
79.3986   6
79.4986   3
79.5986   3
79.6986   6
79.7986   6
79.8985   8
79.9984   3
80.0984   1
80.1984   5
80.2984   3
80.3984   14
80.4984   10
80.5984   18
80.6984   31
80.7984   15
80.8984   13
80.9984   14
81.0984   6
81.1984   8
81.2984   6
81.3984   5
81.4984   5
81.5984   4
81.6984   3
81.7984   6
81.8984   1
81.9984   4
82.0984   9
82.1984   4
82.2984   4
82.3984   10
82.4984   18
82.5984   7
82.6984   12
82.7984   11
82.8984   11
82.9984   10
83.0984   6
83.1984   7
83.2984   6
83.3984   5
83.4984   7
83.5984   5
83.6984   10
83.7984   10
83.8984   6
83.9984   15
84.0984   13
84.1984   9
84.2984   9
84.3984   10
84.4984   7
84.5984   6
84.6984   11
84.7984   13
84.8984   35
84.9984   36
85.0984   17
85.1984   31
85.2984   10
85.3984   7
85.4984   7
85.5984   11
85.6984   8
85.7984   10
85.8984   7
85.9984   5
86.0984   6
86.1984   6
86.2984   6
86.3984   3
86.4984   6
86.5984   8
86.6984   8
86.7984   2
86.8984   8
86.9984   4
87.0984   4
87.1984   8
87.2984   7
87.3984   6
87.4984   5
87.5984   4
87.6984   8
87.7984   4
87.8984   8
87.9984   6
88.0984   3
88.1984   4
88.2984   9
88.3984   4
88.4984   6
88.5984   8
88.6984   8
88.7984   13
88.8984   12
88.9984   14
89.0984   6
89.1984   6
89.2984   6
89.3984   3
89.4984   6
89.5984   2
89.6984   3
89.7983   3
89.8983   6
89.9982   6